SubjectNo,Trial,LineupSize,"TargetPresence (1=absent, 2=present)",Set,targetNames,targetPosition,innocentPos,correctResponse,Answer,AnswerCoded,Accuracy,responseTime,Confidence,ConfRT
3,1,1,2,8,'FacePics\set8 (1).jpg',3,-1,1,1,TargetPick,1,3.722453263,3,4.09589813
3,2,6,1,37,'FacePics\set37 (1).jpg',-1,5,7,2,FoilPick,0,8.961497469,1,1.343949124
3,3,3,1,22,'FacePics\set22 (1).jpg',-1,2,4,1,InnocentPick,0,7.157824707,2,8.007750802
3,4,6,1,18,'FacePics\set18 (1).jpg',-1,4,7,1,InnocentPick,0,3.213657356,3,2.231943207
3,5,3,1,27,'FacePics\set27 (1).jpg',-1,2,4,4,Absent,1,3.670787238,2,2.167938635
3,6,3,1,14,'FacePics\set14 (1).jpg',-1,4,4,2,FoilPick,0,2.767991388,3,1.22398361
3,7,6,1,33,'FacePics\set33 (1).jpg',-1,6,7,5,FoilPick,0,10.45034707,2,1.479957638
3,8,6,2,55,'FacePics\set55 (1).jpg',7,-1,1,4,FoilPick,0,5.077079224,2,1.367967437
3,9,1,2,45,'FacePics\set45 (1).jpg',3,-1,1,1,TargetPick,1,6.1185107,2,1.887930257
3,10,1,1,3,'FacePics\set3 (1).jpg',-1,3,2,2,Absent,1,1.265132225,2,1.079994971
3,11,1,2,25,'FacePics\set25 (1).jpg',3,-1,1,1,TargetPick,1,3.064005559,2,1.223961479
3,12,6,2,11,'FacePics\set11 (1).jpg',4,-1,1,1,TargetPick,1,6.655039633,2,1.479984579
3,13,3,1,32,'FacePics\set32 (1).jpg',-1,4,4,4,Absent,1,3.634825519,2,2.591928595
3,14,1,1,12,'FacePics\set12 (1).jpg',-1,3,2,2,Absent,1,1.965143226,2,1.151969084
3,15,1,2,53,'FacePics\set53 (1).jpg',3,-1,1,2,Absent,0,2.004577828,2,1.583956809
3,16,3,1,10,'FacePics\set10 (1).jpg',-1,3,4,1,InnocentPick,0,2.159869371,2,1.79993239
3,17,6,1,57,'FacePics\set57 (1).jpg',-1,4,7,5,FoilPick,0,5.011647716,2,1.063961594
3,18,6,1,28,'FacePics\set28 (1).jpg',-1,4,7,7,Absent,1,4.698070278,1,1.29597857
3,19,1,2,54,'FacePics\set54 (1).jpg',3,-1,1,2,Absent,0,1.981769956,2,1.039945206
3,20,3,2,34,'FacePics\set34 (1).jpg',2,-1,1,1,TargetPick,1,2.855966163,2,1.41596365
3,21,1,2,4,'FacePics\set4 (1).jpg',3,-1,1,1,TargetPick,1,1.712703661,3,1.655954656
3,22,3,1,21,'FacePics\set21 (1).jpg',-1,4,4,4,Absent,1,4.300885147,2,0.855977685
3,23,1,2,31,'FacePics\set31 (1).jpg',3,-1,1,2,Absent,0,2.026117205,2,1.199954713
3,24,3,1,24,'FacePics\set24 (1).jpg',-1,3,4,4,Absent,1,4.180092466,2,0.927972004
3,25,6,1,23,'FacePics\set23 (1).jpg',-1,3,7,7,Absent,1,3.929535274,2,0.919986747
3,26,3,2,59,'FacePics\set59 (1).jpg',4,-1,1,2,FoilPick,0,6.441720352,1,1.487963421
3,27,6,2,38,'FacePics\set38 (1).jpg',5,-1,1,7,Absent,0,5.709552152,2,1.135965215
3,28,6,2,43,'FacePics\set43 (1).jpg',3,-1,1,7,Absent,0,5.173779824,1,0.88799697
3,29,1,1,9,'FacePics\set9 (1).jpg',-1,3,2,1,InnocentPick,0,3.334750885,2,1.031962836
3,30,1,1,6,'FacePics\set6 (1).jpg',-1,3,2,2,Absent,1,1.115686658,1,0.88798831
3,31,6,2,35,'FacePics\set35 (1).jpg',4,-1,1,1,TargetPick,1,3.606114261,2,1.135955272
3,32,3,2,5,'FacePics\set5 (1).jpg',4,-1,1,4,Absent,0,2.979624903,2,1.223990024
3,33,3,1,60,'FacePics\set60 (1).jpg',-1,3,4,4,Absent,1,4.358115867,1,0.959989044
3,34,6,2,48,'FacePics\set48 (1).jpg',4,-1,1,3,FoilPick,0,7.346696215,2,1.15995819
3,35,6,1,52,'FacePics\set52 (1).jpg',-1,4,7,3,FoilPick,0,5.702343386,2,1.647954967
3,36,1,1,42,'FacePics\set42 (1).jpg',-1,3,2,2,Absent,1,1.15491535,1,0.967989695
3,37,3,2,19,'FacePics\set19 (1).jpg',4,-1,1,4,Absent,0,2.465331336,1,1.103973192
3,38,6,1,47,'FacePics\set47 (1).jpg',-1,5,7,7,Absent,1,5.715961332,1,0.871954612
3,39,3,2,13,'FacePics\set13 (1).jpg',2,-1,1,4,Absent,0,2.390938264,1,0.935962713
3,40,1,2,46,'FacePics\set46 (1).jpg',3,-1,1,2,Absent,0,1.725986122,2,1.351968379
3,41,3,2,1,'FacePics\set1 (1).jpg',2,-1,1,4,Absent,0,1.894146062,3,0.943968176
3,42,6,2,56,'FacePics\set56 (1).jpg',5,-1,1,7,Absent,0,4.543694424,3,1.119947233
3,43,3,2,16,'FacePics\set16 (1).jpg',4,-1,1,4,Absent,0,10.49540121,1,0.783981762
3,44,3,1,26,'FacePics\set26 (1).jpg',-1,4,4,4,Absent,1,2.084938433,2,0.92797489
3,45,6,1,40,'FacePics\set40 (1).jpg',-1,7,7,7,Absent,1,15.23077866,1,0.927984512
3,46,3,2,51,'FacePics\set51 (1).jpg',3,-1,1,4,Absent,0,3.272252468,1,1.183977143
3,47,3,2,41,'FacePics\set41 (1).jpg',2,-1,1,4,Absent,0,2.961338707,1,1.943933536
3,48,1,1,58,'FacePics\set58 (1).jpg',-1,3,2,2,Absent,1,2.640657704,1,1.223966611
3,49,6,2,49,'FacePics\set49 (1).jpg',2,-1,1,7,Absent,0,3.232613882,1,1.527934927
3,50,1,2,15,'FacePics\set15 (1).jpg',3,-1,1,2,Absent,0,1.757998992,2,0.951953753
3,51,6,1,17,'FacePics\set17 (1).jpg',-1,6,7,1,InnocentPick,0,6.763478051,1,0.663994437
3,52,1,1,20,'FacePics\set20 (1).jpg',-1,3,2,2,Absent,1,6.053290234,1,0.895984471
3,53,1,1,30,'FacePics\set30 (1).jpg',-1,3,2,2,Absent,1,1.202262081,1,1.12797675
3,54,1,1,7,'FacePics\set7 (1).jpg',-1,3,2,2,Absent,1,0.98579546,1,0.903978388
3,55,1,2,50,'FacePics\set50 (1).jpg',3,-1,1,2,Absent,0,1.154958969,1,1.183963673
3,56,3,2,2,'FacePics\set2 (1).jpg',4,-1,1,4,Absent,0,1.633237256,2,0.783980479
3,57,6,2,36,'FacePics\set36 (1).jpg',2,-1,1,1,TargetPick,1,2.706959357,2,1.119965515
3,58,3,1,44,'FacePics\set44 (1).jpg',-1,4,4,3,FoilPick,0,2.38928393,2,1.295972476
3,59,1,1,29,'FacePics\set29 (1).jpg',-1,3,2,2,Absent,1,1.157802576,2,1.143964263
3,60,6,2,39,'FacePics\set39 (1).jpg',7,-1,1,4,FoilPick,0,6.100005124,2,1.303969921
4,1,6,1,23,'FacePics\set23 (1).jpg',-1,3,7,1,InnocentPick,0,5.577394015,3,2.439930966
4,2,3,2,26,'FacePics\set26 (1).jpg',2,-1,1,1,TargetPick,1,2.238952816,3,1.551955485
4,3,1,1,34,'FacePics\set34 (1).jpg',-1,3,2,2,Absent,1,3.59868675,1,1.663939592
4,4,3,1,25,'FacePics\set25 (1).jpg',-1,2,4,1,InnocentPick,0,2.321353916,2,1.071970906
4,5,3,2,39,'FacePics\set39 (1).jpg',2,-1,1,1,TargetPick,1,2.503829715,3,1.879951095
4,6,3,1,12,'FacePics\set12 (1).jpg',-1,3,4,4,Absent,1,4.169499013,1,1.295951629
4,7,3,2,57,'FacePics\set57 (1).jpg',2,-1,1,1,TargetPick,1,2.13277748,3,0.967977508
4,8,3,2,36,'FacePics\set36 (1).jpg',3,-1,1,1,TargetPick,1,1.550806963,3,2.855931179
4,9,3,1,32,'FacePics\set32 (1).jpg',-1,3,4,4,Absent,1,3.684324995,1,1.271952239
4,10,6,2,29,'FacePics\set29 (1).jpg',4,-1,1,4,FoilPick,0,4.665006684,2,1.079972199
4,11,6,2,35,'FacePics\set35 (1).jpg',3,-1,1,2,FoilPick,0,4.399534508,1,2.927920045
4,12,3,1,60,'FacePics\set60 (1).jpg',-1,2,4,4,Absent,1,3.182847544,1,1.047991723
4,13,6,2,27,'FacePics\set27 (1).jpg',2,-1,1,5,FoilPick,0,4.210478899,1,2.55990065
4,14,3,1,59,'FacePics\set59 (1).jpg',-1,3,4,4,Absent,1,2.728635679,3,1.023962185
4,15,6,1,56,'FacePics\set56 (1).jpg',-1,3,7,7,Absent,1,3.109916368,3,1.175992849
4,16,1,2,28,'FacePics\set28 (1).jpg',3,-1,1,2,Absent,0,1.350038554,2,1.95992618
4,17,3,2,33,'FacePics\set33 (1).jpg',3,-1,1,4,Absent,0,3.213978402,2,0.911974549
4,18,6,1,47,'FacePics\set47 (1).jpg',-1,5,7,7,Absent,1,5.452881166,3,1.015971155
4,19,3,1,50,'FacePics\set50 (1).jpg',-1,3,4,4,Absent,1,2.438403659,3,1.719958587
4,20,6,2,58,'FacePics\set58 (1).jpg',5,-1,1,1,TargetPick,1,2.067506659,3,1.111965825
4,21,3,2,44,'FacePics\set44 (1).jpg',4,-1,1,4,Absent,0,1.818058879,3,0.711977821
4,22,1,1,52,'FacePics\set52 (1).jpg',-1,3,2,2,Absent,1,1.105677578,3,0.711976538
4,23,1,2,1,'FacePics\set1 (1).jpg',3,-1,1,2,Absent,0,0.773450876,3,0.903979671
4,24,1,2,15,'FacePics\set15 (1).jpg',3,-1,1,2,Absent,0,0.831178409,3,0.927969759
4,25,6,2,38,'FacePics\set38 (1).jpg',2,-1,1,7,Absent,0,4.244147386,3,0.719971417
4,26,1,2,48,'FacePics\set48 (1).jpg',3,-1,1,2,Absent,0,0.993697961,3,0.823960324
4,27,3,1,40,'FacePics\set40 (1).jpg',-1,4,4,4,Absent,1,1.503432648,2,1.407947603
4,28,3,1,45,'FacePics\set45 (1).jpg',-1,2,4,4,Absent,1,2.849411363,2,1.279977587
4,29,6,1,51,'FacePics\set51 (1).jpg',-1,7,7,7,Absent,1,3.798379104,1,1.159975188
4,30,6,2,19,'FacePics\set19 (1).jpg',5,-1,1,1,TargetPick,1,2.963078028,3,0.871987648
4,31,1,1,30,'FacePics\set30 (1).jpg',-1,3,2,2,Absent,1,1.84148031,2,0.711986481
4,32,1,1,14,'FacePics\set14 (1).jpg',-1,3,2,2,Absent,1,1.059715124,2,1.28000485
4,33,1,1,17,'FacePics\set17 (1).jpg',-1,3,2,2,Absent,1,1.166708647,3,1.119979627
4,34,1,1,37,'FacePics\set37 (1).jpg',-1,3,2,2,Absent,1,0.971493707,3,0.903971652
4,35,3,2,55,'FacePics\set55 (1).jpg',2,-1,1,4,Absent,0,2.015895801,3,0.783966046
4,36,6,1,8,'FacePics\set8 (1).jpg',-1,6,7,7,Absent,1,6.369245249,3,0.759958318
4,37,1,1,43,'FacePics\set43 (1).jpg',-1,3,2,2,Absent,1,0.763469706,1,1.831946222
4,38,3,2,18,'FacePics\set18 (1).jpg',4,-1,1,4,Absent,0,2.146850545,3,0.816023498
4,39,1,1,46,'FacePics\set46 (1).jpg',-1,3,2,2,Absent,1,1.109691856,3,0.59997896
4,40,6,2,42,'FacePics\set42 (1).jpg',5,-1,1,7,Absent,0,4.147293796,3,0.856020021
4,41,6,1,24,'FacePics\set24 (1).jpg',-1,5,7,7,Absent,1,4.630164319,3,1.087963549
4,42,3,2,31,'FacePics\set31 (1).jpg',2,-1,1,4,Absent,0,3.934448557,3,0.639984784
4,43,1,1,9,'FacePics\set9 (1).jpg',-1,3,2,1,InnocentPick,0,1.903366129,1,0.687976507
4,44,6,1,3,'FacePics\set3 (1).jpg',-1,5,7,7,Absent,1,1.330378343,3,1.071973151
4,45,6,2,41,'FacePics\set41 (1).jpg',6,-1,1,7,Absent,0,4.099543585,3,0.895970039
4,46,3,2,21,'FacePics\set21 (1).jpg',3,-1,1,4,Absent,0,3.339037778,1,1.047980497
4,47,3,1,10,'FacePics\set10 (1).jpg',-1,4,4,4,Absent,1,1.556766157,2,1.183974257
4,48,1,2,54,'FacePics\set54 (1).jpg',3,-1,1,2,Absent,0,1.099511512,2,0.783973102
4,49,1,1,49,'FacePics\set49 (1).jpg',-1,3,2,2,Absent,1,0.992567382,3,0.743993257
4,50,1,2,7,'FacePics\set7 (1).jpg',3,-1,1,2,Absent,0,1.023696957,3,0.671985146
4,51,6,1,20,'FacePics\set20 (1).jpg',-1,3,7,7,Absent,1,5.688024314,3,2.63191261
4,52,1,2,11,'FacePics\set11 (1).jpg',3,-1,1,2,Absent,0,3.221783729,2,1.559955175
4,53,1,2,4,'FacePics\set4 (1).jpg',3,-1,1,1,TargetPick,1,4.754482163,1,1.239973687
4,54,1,2,6,'FacePics\set6 (1).jpg',3,-1,1,1,TargetPick,1,1.486389929,3,0.6079655
4,55,3,1,13,'FacePics\set13 (1).jpg',-1,3,4,4,Absent,1,2.183323189,3,0.807979547
4,56,6,2,16,'FacePics\set16 (1).jpg',2,-1,1,7,Absent,0,3.673969852,2,0.871981233
4,57,6,2,2,'FacePics\set2 (1).jpg',7,-1,1,7,Absent,0,1.151553433,3,0.97596501
4,58,6,1,5,'FacePics\set5 (1).jpg',-1,4,7,7,Absent,1,1.453828608,3,1.055960301
4,59,1,2,22,'FacePics\set22 (1).jpg',3,-1,1,2,Absent,0,0.830041415,3,0.71998168
4,60,6,1,53,'FacePics\set53 (1).jpg',-1,6,7,7,Absent,1,2.236437638,3,0.927977135
5,1,1,1,30,'FacePics\set30 (1).jpg',-1,3,2,2,Absent,1,10.3667334,2,3.0399518
5,2,1,1,25,'FacePics\set25 (1).jpg',-1,3,2,2,Absent,1,2.24702939,2,4.439938072
5,3,6,2,4,'FacePics\set4 (1).jpg',7,-1,1,1,TargetPick,1,4.582408589,3,2.727942365
5,4,1,2,21,'FacePics\set21 (1).jpg',3,-1,1,1,TargetPick,1,1.396493505,3,1.991999248
5,5,6,1,24,'FacePics\set24 (1).jpg',-1,4,7,7,Absent,1,8.295697824,1,2.367961135
5,6,3,1,9,'FacePics\set9 (1).jpg',-1,3,4,4,Absent,1,5.047951633,2,2.631950663
5,7,1,2,47,'FacePics\set47 (1).jpg',3,-1,1,1,TargetPick,1,2.175111147,3,1.591979619
5,8,6,1,17,'FacePics\set17 (1).jpg',-1,7,7,7,Absent,1,5.843651337,2,1.495949108
5,9,6,2,14,'FacePics\set14 (1).jpg',6,-1,1,1,TargetPick,1,6.12881327,3,1.631970549
5,10,1,1,12,'FacePics\set12 (1).jpg',-1,3,2,2,Absent,1,2.945548104,2,1.071992012
5,11,3,1,51,'FacePics\set51 (1).jpg',-1,2,4,4,Absent,1,3.926401787,3,1.296023968
5,12,3,2,54,'FacePics\set54 (1).jpg',3,-1,1,1,TargetPick,1,3.283696536,1,3.975939371
5,13,3,1,23,'FacePics\set23 (1).jpg',-1,3,4,4,Absent,1,5.030574174,1,2.519956816
5,14,6,1,34,'FacePics\set34 (1).jpg',-1,5,7,7,Absent,1,7.322453916,3,4.839927552
5,15,6,2,39,'FacePics\set39 (1).jpg',3,-1,1,1,TargetPick,1,4.146778959,2,1.711967803
5,16,6,1,52,'FacePics\set52 (1).jpg',-1,6,7,7,Absent,1,6.963194982,2,4.383946281
5,17,1,2,44,'FacePics\set44 (1).jpg',3,-1,1,1,TargetPick,1,3.862639853,1,3.487945149
5,18,3,1,53,'FacePics\set53 (1).jpg',-1,2,4,4,Absent,1,4.089515771,2,1.975973369
5,19,6,2,45,'FacePics\set45 (1).jpg',6,-1,1,7,Absent,0,9.256940764,2,5.063985808
5,20,1,1,10,'FacePics\set10 (1).jpg',-1,3,2,2,Absent,1,3.104202259,1,1.159959228
5,21,3,2,58,'FacePics\set58 (1).jpg',3,-1,1,1,TargetPick,1,3.219813363,3,1.439974316
5,22,1,1,32,'FacePics\set32 (1).jpg',-1,3,2,2,Absent,1,2.041411512,2,1.527981944
5,23,3,1,26,'FacePics\set26 (1).jpg',-1,2,4,4,Absent,1,5.903831296,2,1.447977633
5,24,3,2,20,'FacePics\set20 (1).jpg',3,-1,1,1,TargetPick,1,5.843750765,3,2.807938657
5,25,3,1,2,'FacePics\set2 (1).jpg',-1,4,4,4,Absent,1,1.908758437,3,3.807943789
5,26,1,1,19,'FacePics\set19 (1).jpg',-1,3,2,2,Absent,1,1.198782403,3,1.255969853
5,27,1,2,31,'FacePics\set31 (1).jpg',3,-1,1,2,Absent,0,2.984157946,2,1.407972591
5,28,1,2,33,'FacePics\set33 (1).jpg',3,-1,1,2,Absent,0,1.315818856,1,12.00780607
5,29,3,2,15,'FacePics\set15 (1).jpg',4,-1,1,1,TargetPick,1,2.098537104,3,2.927950576
5,30,1,2,56,'FacePics\set56 (1).jpg',3,-1,1,1,TargetPick,1,2.220834585,2,1.007905493
5,31,6,2,11,'FacePics\set11 (1).jpg',3,-1,1,7,Absent,0,7.711152537,1,2.287994671
5,32,1,2,40,'FacePics\set40 (1).jpg',3,-1,1,1,TargetPick,1,1.640453731,3,1.319984528
5,33,1,1,57,'FacePics\set57 (1).jpg',-1,3,2,2,Absent,1,1.245155973,2,1.519966759
5,34,6,2,46,'FacePics\set46 (1).jpg',2,-1,1,1,TargetPick,1,3.058613529,3,3.295952765
5,35,3,1,60,'FacePics\set60 (1).jpg',-1,3,4,4,Absent,1,3.073454611,2,1.615969366
5,36,6,1,1,'FacePics\set1 (1).jpg',-1,4,7,7,Absent,1,6.438803353,1,4.559931709
5,37,6,2,49,'FacePics\set49 (1).jpg',3,-1,1,7,Absent,0,8.631628047,1,0.863986257
5,38,6,1,27,'FacePics\set27 (1).jpg',-1,2,7,7,Absent,1,5.973086791,1,1.815960899
5,39,1,1,6,'FacePics\set6 (1).jpg',-1,3,2,2,Absent,1,4.678151721,1,2.471940438
5,40,1,1,38,'FacePics\set38 (1).jpg',-1,3,2,2,Absent,1,4.580165043,1,4.087949575
5,41,3,2,18,'FacePics\set18 (1).jpg',2,-1,1,4,Absent,0,4.005145927,1,3.455966197
5,42,3,2,28,'FacePics\set28 (1).jpg',2,-1,1,1,TargetPick,1,3.862967644,1,3.175953355
5,43,3,1,35,'FacePics\set35 (1).jpg',-1,2,4,4,Absent,1,3.997768044,2,1.423945229
5,44,1,2,13,'FacePics\set13 (1).jpg',3,-1,1,2,Absent,0,2.143874056,2,3.79194838
5,45,3,2,50,'FacePics\set50 (1).jpg',2,-1,1,4,Absent,0,5.030700543,2,2.479953057
5,46,1,1,5,'FacePics\set5 (1).jpg',-1,3,2,2,Absent,1,2.964761776,2,1.376011921
5,47,6,1,29,'FacePics\set29 (1).jpg',-1,4,7,7,Absent,1,4.510329657,3,4.543931809
5,48,3,2,22,'FacePics\set22 (1).jpg',2,-1,1,4,Absent,0,4.048398418,3,1.687968755
5,49,6,2,48,'FacePics\set48 (1).jpg',7,-1,1,1,TargetPick,1,2.814946135,3,1.231902489
5,50,6,1,41,'FacePics\set41 (1).jpg',-1,5,7,7,Absent,1,10.04928172,2,0.959985657
5,51,6,1,8,'FacePics\set8 (1).jpg',-1,5,7,7,Absent,1,4.635343449,1,1.167984677
5,52,3,1,37,'FacePics\set37 (1).jpg',-1,2,4,4,Absent,1,2.503783442,2,1.311982172
5,53,6,1,36,'FacePics\set36 (1).jpg',-1,3,7,7,Absent,1,7.917030211,2,1.351965083
5,54,3,2,42,'FacePics\set42 (1).jpg',3,-1,1,1,TargetPick,1,2.714342895,3,1.880007646
5,55,6,2,59,'FacePics\set59 (1).jpg',5,-1,1,7,Absent,0,16.26707441,1,0.879936443
5,56,1,2,55,'FacePics\set55 (1).jpg',3,-1,1,2,Absent,0,1.932853706,1,7.383870908
5,57,3,2,43,'FacePics\set43 (1).jpg',2,-1,1,1,TargetPick,1,4.612074396,2,3.023980445
5,58,1,2,3,'FacePics\set3 (1).jpg',3,-1,1,2,Absent,0,1.100775198,2,1.991980966
5,59,6,2,7,'FacePics\set7 (1).jpg',7,-1,1,7,Absent,0,5.938064378,1,0.959989185
5,60,3,1,16,'FacePics\set16 (1).jpg',-1,3,4,4,Absent,1,5.154835519,2,0.744074729
6,1,3,1,16,'FacePics\set16 (1).jpg',-1,4,4,3,FoilPick,0,4.590139855,1,2.359925795
6,2,3,2,53,'FacePics\set53 (1).jpg',4,-1,1,1,TargetPick,1,2.369004208,3,0.927963203
6,3,3,1,49,'FacePics\set49 (1).jpg',-1,3,4,1,InnocentPick,0,4.409296063,2,0.847958097
6,4,1,2,10,'FacePics\set10 (1).jpg',3,-1,1,2,Absent,0,5.745933702,2,1.007966384
6,5,1,2,30,'FacePics\set30 (1).jpg',3,-1,1,1,TargetPick,1,1.566221778,3,1.48795725
6,6,1,1,28,'FacePics\set28 (1).jpg',-1,3,2,2,Absent,1,1.809527825,2,0.816041241
6,7,6,1,51,'FacePics\set51 (1).jpg',-1,4,7,4,FoilPick,0,6.010819035,2,0.879975663
6,8,6,2,58,'FacePics\set58 (1).jpg',3,-1,1,6,FoilPick,0,2.77704295,2,1.095983099
6,9,3,1,60,'FacePics\set60 (1).jpg',-1,2,4,3,FoilPick,0,2.120084359,1,1.095967383
6,10,6,1,23,'FacePics\set23 (1).jpg',-1,6,7,7,Absent,1,4.321977265,2,1.207971773
6,11,3,1,27,'FacePics\set27 (1).jpg',-1,4,4,2,FoilPick,0,2.129471594,2,1.095950384
6,12,3,1,44,'FacePics\set44 (1).jpg',-1,3,4,3,FoilPick,0,2.317320853,2,0.775985125
6,13,3,2,22,'FacePics\set22 (1).jpg',4,-1,1,4,Absent,0,2.655193958,2,0.943954667
6,14,1,2,37,'FacePics\set37 (1).jpg',3,-1,1,2,Absent,0,1.586584522,1,1.415954771
6,15,6,2,15,'FacePics\set15 (1).jpg',4,-1,1,6,FoilPick,0,2.437685488,2,1.055965471
6,16,3,2,50,'FacePics\set50 (1).jpg',3,-1,1,3,FoilPick,0,3.570162634,1,0.799995895
6,17,3,1,2,'FacePics\set2 (1).jpg',-1,3,4,1,InnocentPick,0,1.839766922,2,1.04798337
6,18,3,2,43,'FacePics\set43 (1).jpg',3,-1,1,3,FoilPick,0,3.298500518,1,0.808000767
6,19,1,2,25,'FacePics\set25 (1).jpg',3,-1,1,2,Absent,0,1.033603638,2,1.024047012
6,20,1,2,26,'FacePics\set26 (1).jpg',3,-1,1,1,TargetPick,1,1.31463567,3,0.935986357
6,21,6,1,46,'FacePics\set46 (1).jpg',-1,2,7,4,FoilPick,0,2.661979081,2,4.007931424
6,22,1,1,55,'FacePics\set55 (1).jpg',-1,3,2,1,InnocentPick,0,1.402294445,2,1.071973933
6,23,3,2,33,'FacePics\set33 (1).jpg',2,-1,1,4,Absent,0,1.709116035,2,1.167971786
6,24,1,2,21,'FacePics\set21 (1).jpg',3,-1,1,1,TargetPick,1,1.061909674,3,0.735988666
6,25,1,1,45,'FacePics\set45 (1).jpg',-1,3,2,1,InnocentPick,0,1.025774207,3,0.70389669
6,26,6,2,7,'FacePics\set7 (1).jpg',6,-1,1,3,FoilPick,0,3.191319643,2,0.95196467
6,27,6,1,19,'FacePics\set19 (1).jpg',-1,4,7,3,FoilPick,0,2.003669238,2,2.095938517
6,28,1,2,35,'FacePics\set35 (1).jpg',3,-1,1,1,TargetPick,1,1.242690603,2,0.791975627
6,29,3,1,29,'FacePics\set29 (1).jpg',-1,2,4,4,Absent,1,1.983851742,2,0.735973913
6,30,6,2,31,'FacePics\set31 (1).jpg',3,-1,1,7,Absent,0,3.3423801,2,0.823973628
6,31,1,1,12,'FacePics\set12 (1).jpg',-1,3,2,2,Absent,1,0.914315706,3,0.855988949
6,32,1,1,52,'FacePics\set52 (1).jpg',-1,3,2,1,InnocentPick,0,1.507220883,2,0.695972963
6,33,6,1,38,'FacePics\set38 (1).jpg',-1,7,7,1,InnocentPick,0,1.820753826,2,0.903995092
6,34,6,1,13,'FacePics\set13 (1).jpg',-1,5,7,5,FoilPick,0,3.241505812,2,0.919972443
6,35,6,1,57,'FacePics\set57 (1).jpg',-1,2,7,5,FoilPick,0,2.574458862,1,0.67997701
6,36,3,2,41,'FacePics\set41 (1).jpg',2,-1,1,3,FoilPick,0,1.218374495,2,0.759987568
6,37,6,2,5,'FacePics\set5 (1).jpg',7,-1,1,3,FoilPick,0,1.244721489,2,0.855993119
6,38,6,1,11,'FacePics\set11 (1).jpg',-1,2,7,7,Absent,1,3.836406595,2,0.903992526
6,39,6,2,36,'FacePics\set36 (1).jpg',6,-1,1,7,Absent,0,2.399146123,2,0.807990824
6,40,1,1,59,'FacePics\set59 (1).jpg',-1,3,2,2,Absent,1,1.009832778,3,0.767985706
6,41,1,1,14,'FacePics\set14 (1).jpg',-1,3,2,2,Absent,1,0.781591275,3,0.71998694
6,42,3,1,48,'FacePics\set48 (1).jpg',-1,2,4,2,FoilPick,0,1.28603456,1,1.063989267
6,43,3,1,47,'FacePics\set47 (1).jpg',-1,3,4,3,FoilPick,0,2.22891541,1,0.807981202
6,44,6,1,9,'FacePics\set9 (1).jpg',-1,3,7,7,Absent,1,2.910219294,2,0.663999659
6,45,3,2,4,'FacePics\set4 (1).jpg',2,-1,1,3,FoilPick,0,1.66544557,2,1.071977783
6,46,6,2,1,'FacePics\set1 (1).jpg',6,-1,1,6,FoilPick,0,2.384203459,2,1.623940977
6,47,6,2,24,'FacePics\set24 (1).jpg',7,-1,1,5,FoilPick,0,2.112603244,2,0.679976047
6,48,3,1,8,'FacePics\set8 (1).jpg',-1,4,4,4,Absent,1,2.067914451,3,0.887970914
6,49,6,1,54,'FacePics\set54 (1).jpg',-1,7,7,1,InnocentPick,0,2.688606716,1,0.983997953
6,50,3,2,20,'FacePics\set20 (1).jpg',4,-1,1,3,FoilPick,0,1.643808231,1,0.83995547
6,51,1,1,56,'FacePics\set56 (1).jpg',-1,3,2,2,Absent,1,1.200622845,2,0.9119634
6,52,6,2,39,'FacePics\set39 (1).jpg',6,-1,1,3,FoilPick,0,3.252919123,2,1.175965753
6,53,1,2,40,'FacePics\set40 (1).jpg',3,-1,1,2,Absent,0,1.295233203,2,1.015966446
6,54,6,2,18,'FacePics\set18 (1).jpg',5,-1,1,3,FoilPick,0,1.070789828,1,2.703953139
6,55,3,2,3,'FacePics\set3 (1).jpg',4,-1,1,1,TargetPick,1,1.485233303,1,1.111976166
6,56,1,1,32,'FacePics\set32 (1).jpg',-1,3,2,1,InnocentPick,0,0.668720262,1,0.839983694
6,57,1,1,17,'FacePics\set17 (1).jpg',-1,3,2,1,InnocentPick,0,0.972564801,2,1.95994196
6,58,3,2,42,'FacePics\set42 (1).jpg',2,-1,1,1,TargetPick,1,3.284510433,2,0.735984497
6,59,1,2,34,'FacePics\set34 (1).jpg',3,-1,1,1,TargetPick,1,0.903199716,3,0.799921485
6,60,1,2,6,'FacePics\set6 (1).jpg',3,-1,1,2,Absent,0,1.262961295,1,0.983954333
7,1,6,1,33,'FacePics\set33 (1).jpg',-1,5,7,5,FoilPick,0,28.18509717,2,1.663997175
7,2,1,1,26,'FacePics\set26 (1).jpg',-1,3,2,1,InnocentPick,0,5.366771427,2,1.655976191
7,3,1,2,13,'FacePics\set13 (1).jpg',3,-1,1,1,TargetPick,1,1.784297828,2,0.895987648
7,4,3,1,31,'FacePics\set31 (1).jpg',-1,2,4,4,Absent,1,2.275099099,2,1.672041252
7,5,6,2,27,'FacePics\set27 (1).jpg',3,-1,1,1,TargetPick,1,4.800390151,3,0.983807286
7,6,3,1,1,'FacePics\set1 (1).jpg',-1,3,4,4,Absent,1,3.520831537,2,1.223985846
7,7,3,2,40,'FacePics\set40 (1).jpg',2,-1,1,1,TargetPick,1,2.155566938,3,1.112034619
7,8,6,2,4,'FacePics\set4 (1).jpg',5,-1,1,1,TargetPick,1,7.320910566,2,1.167964367
7,9,6,1,37,'FacePics\set37 (1).jpg',-1,4,7,7,Absent,1,5.098564326,2,1.039975342
7,10,3,2,46,'FacePics\set46 (1).jpg',4,-1,1,4,Absent,0,2.669737728,2,0.807998019
7,11,6,1,47,'FacePics\set47 (1).jpg',-1,4,7,7,Absent,1,5.968081251,2,0.736002889
7,12,1,2,57,'FacePics\set57 (1).jpg',3,-1,1,1,TargetPick,1,3.006440721,2,0.943942278
7,13,1,1,18,'FacePics\set18 (1).jpg',-1,3,2,1,InnocentPick,0,2.923581277,2,0.743999497
7,14,6,2,34,'FacePics\set34 (1).jpg',5,-1,1,1,TargetPick,1,8.031890539,2,0.751991615
7,15,3,1,50,'FacePics\set50 (1).jpg',-1,3,4,4,Absent,1,5.444073787,2,0.935973253
7,16,3,2,6,'FacePics\set6 (1).jpg',4,-1,1,1,TargetPick,1,3.042982577,2,0.679977882
7,17,6,2,21,'FacePics\set21 (1).jpg',3,-1,1,1,TargetPick,1,3.17404875,3,0.927988833
7,18,6,1,3,'FacePics\set3 (1).jpg',-1,5,7,7,Absent,1,7.177886044,2,0.703967706
7,19,6,2,56,'FacePics\set56 (1).jpg',7,-1,1,7,Absent,0,4.026389583,2,0.647996582
7,20,3,2,51,'FacePics\set51 (1).jpg',2,-1,1,1,TargetPick,1,3.397068538,2,0.647988243
7,21,6,1,12,'FacePics\set12 (1).jpg',-1,6,7,7,Absent,1,5.547593808,2,0.93598929
7,22,6,1,2,'FacePics\set2 (1).jpg',-1,3,7,7,Absent,1,3.471231207,2,0.647983753
7,23,6,2,16,'FacePics\set16 (1).jpg',7,-1,1,1,TargetPick,1,5.314689557,2,1.408000521
7,24,1,2,60,'FacePics\set60 (1).jpg',3,-1,1,2,Absent,0,1.688348797,1,8.879901418
7,25,3,2,29,'FacePics\set29 (1).jpg',4,-1,1,1,TargetPick,1,2.140487501,2,1.520002104
7,26,3,2,19,'FacePics\set19 (1).jpg',4,-1,1,1,TargetPick,1,3.564384375,2,1.535976717
7,27,1,2,28,'FacePics\set28 (1).jpg',3,-1,1,2,Absent,0,1.547309636,1,1.599974598
7,28,3,2,53,'FacePics\set53 (1).jpg',3,-1,1,3,FoilPick,0,5.415723227,2,0.912033785
7,29,6,1,20,'FacePics\set20 (1).jpg',-1,7,7,7,Absent,1,3.445363469,2,2.487977184
7,30,1,1,23,'FacePics\set23 (1).jpg',-1,3,2,2,Absent,1,1.654399136,2,0.912000108
7,31,1,1,22,'FacePics\set22 (1).jpg',-1,3,2,2,Absent,1,1.274656803,2,0.759989826
7,32,6,1,52,'FacePics\set52 (1).jpg',-1,7,7,7,Absent,1,5.669075727,2,1.199994419
7,33,3,1,35,'FacePics\set35 (1).jpg',-1,3,4,4,Absent,1,2.661699745,2,0.839986696
7,34,1,1,48,'FacePics\set48 (1).jpg',-1,3,2,2,Absent,1,1.129617093,2,0.767996377
7,35,1,1,55,'FacePics\set55 (1).jpg',-1,3,2,2,Absent,1,5.121963032,1,0.975988046
7,36,1,2,24,'FacePics\set24 (1).jpg',3,-1,1,2,Absent,0,2.872449429,1,3.503963023
7,37,3,2,11,'FacePics\set11 (1).jpg',3,-1,1,1,TargetPick,1,2.321590528,2,0.615988661
7,38,1,2,41,'FacePics\set41 (1).jpg',3,-1,1,1,TargetPick,1,1.550148476,2,0.95199309
7,39,6,1,7,'FacePics\set7 (1).jpg',-1,4,7,7,Absent,1,5.492269932,2,0.920002168
7,40,1,2,44,'FacePics\set44 (1).jpg',3,-1,1,1,TargetPick,1,4.285936151,1,0.520012047
7,41,6,2,45,'FacePics\set45 (1).jpg',6,-1,1,4,FoilPick,0,7.869914326,2,0.831972768
7,42,6,2,58,'FacePics\set58 (1).jpg',2,-1,1,1,TargetPick,1,6.020330225,2,0.75198937
7,43,6,2,8,'FacePics\set8 (1).jpg',6,-1,1,7,Absent,0,5.733598013,2,0.815974741
7,44,1,2,38,'FacePics\set38 (1).jpg',3,-1,1,1,TargetPick,1,2.321300582,1,0.719981769
7,45,3,1,49,'FacePics\set49 (1).jpg',-1,3,4,4,Absent,1,3.107268479,2,1.327969332
7,46,3,1,15,'FacePics\set15 (1).jpg',-1,3,4,1,InnocentPick,0,9.986772825,1,0.911973487
7,47,3,1,54,'FacePics\set54 (1).jpg',-1,2,4,4,Absent,1,2.843020552,2,0.831994578
7,48,3,1,42,'FacePics\set42 (1).jpg',-1,3,4,1,InnocentPick,0,9.220684831,1,0.639990673
7,49,1,1,43,'FacePics\set43 (1).jpg',-1,3,2,2,Absent,1,1.11999467,2,0.775998437
7,50,3,1,9,'FacePics\set9 (1).jpg',-1,3,4,1,InnocentPick,0,1.907078731,2,1.360052306
7,51,1,2,59,'FacePics\set59 (1).jpg',3,-1,1,1,TargetPick,1,1.891702613,2,1.271961324
7,52,1,2,39,'FacePics\set39 (1).jpg',3,-1,1,2,Absent,0,2.648380511,1,1.024001049
7,53,6,1,17,'FacePics\set17 (1).jpg',-1,6,7,4,FoilPick,0,8.388126077,2,0.935960103
7,54,3,2,10,'FacePics\set10 (1).jpg',4,-1,1,4,Absent,0,2.975617923,2,0.807990321
7,55,3,2,32,'FacePics\set32 (1).jpg',3,-1,1,1,TargetPick,1,2.309504527,2,0.791981069
7,56,1,1,30,'FacePics\set30 (1).jpg',-1,3,2,2,Absent,1,0.976634337,2,0.839997601
7,57,1,1,14,'FacePics\set14 (1).jpg',-1,3,2,1,InnocentPick,0,1.291755278,2,0.799975752
7,58,1,1,36,'FacePics\set36 (1).jpg',-1,3,2,2,Absent,1,0.928874715,2,0.575984453
7,59,6,2,25,'FacePics\set25 (1).jpg',3,-1,1,7,Absent,0,9.399806988,2,0.599994163
7,60,3,1,5,'FacePics\set5 (1).jpg',-1,3,4,4,Absent,1,3.255682019,1,1.015978141
8,1,3,2,38,'FacePics\set38 (1).jpg',4,-1,1,1,TargetPick,1,3.591995234,3,1.671953765
8,2,3,1,13,'FacePics\set13 (1).jpg',-1,4,4,4,Absent,1,9.991145159,2,2.143952177
8,3,6,1,18,'FacePics\set18 (1).jpg',-1,7,7,3,FoilPick,0,12.4482355,1,1.071986673
8,4,3,1,12,'FacePics\set12 (1).jpg',-1,4,4,4,Absent,1,4.171086663,2,2.343944736
8,5,1,2,32,'FacePics\set32 (1).jpg',3,-1,1,1,TargetPick,1,2.649375325,2,4.543936974
8,6,6,2,9,'FacePics\set9 (1).jpg',5,-1,1,1,TargetPick,1,3.638166287,3,1.383956077
8,7,1,1,58,'FacePics\set58 (1).jpg',-1,3,2,2,Absent,1,4.140980574,1,2.687941752
8,8,1,2,52,'FacePics\set52 (1).jpg',3,-1,1,2,Absent,0,1.191266653,2,1.287922957
8,9,3,2,17,'FacePics\set17 (1).jpg',4,-1,1,4,Absent,0,3.966744299,2,1.239962846
8,10,6,1,1,'FacePics\set1 (1).jpg',-1,3,7,7,Absent,1,8.453328445,3,2.439989724
8,11,1,1,51,'FacePics\set51 (1).jpg',-1,3,2,2,Absent,1,1.147056894,3,1.119968914
8,12,1,2,25,'FacePics\set25 (1).jpg',3,-1,1,1,TargetPick,1,1.307999033,2,0.975981136
8,13,3,1,59,'FacePics\set59 (1).jpg',-1,2,4,4,Absent,1,3.218258087,2,1.607946011
8,14,3,1,50,'FacePics\set50 (1).jpg',-1,4,4,4,Absent,1,3.355079048,3,1.504007421
8,15,6,1,35,'FacePics\set35 (1).jpg',-1,4,7,7,Absent,1,5.335033446,1,0.855998109
8,16,1,1,36,'FacePics\set36 (1).jpg',-1,3,2,2,Absent,1,1.664232722,2,1.64796954
8,17,1,2,30,'FacePics\set30 (1).jpg',3,-1,1,2,Absent,0,6.941251659,2,0.591978873
8,18,3,1,31,'FacePics\set31 (1).jpg',-1,3,4,4,Absent,1,2.069410535,3,0.767985603
8,19,6,1,34,'FacePics\set34 (1).jpg',-1,6,7,7,Absent,1,4.912645325,1,0.727950848
8,20,6,1,56,'FacePics\set56 (1).jpg',-1,5,7,7,Absent,1,3.412461063,1,1.34397264
8,21,3,2,37,'FacePics\set37 (1).jpg',3,-1,1,4,Absent,0,4.065230079,1,1.015981572
8,22,6,1,7,'FacePics\set7 (1).jpg',-1,2,7,7,Absent,1,4.520540019,1,2.319959549
8,23,3,1,57,'FacePics\set57 (1).jpg',-1,3,4,3,FoilPick,0,5.299346251,1,2.687945601
8,24,1,2,8,'FacePics\set8 (1).jpg',3,-1,1,2,Absent,0,1.149200685,3,1.00798405
8,25,3,1,24,'FacePics\set24 (1).jpg',-1,2,4,4,Absent,1,10.29326544,2,0.880002861
8,26,1,2,44,'FacePics\set44 (1).jpg',3,-1,1,2,Absent,0,2.094954173,2,1.279970018
8,27,3,1,46,'FacePics\set46 (1).jpg',-1,3,4,4,Absent,1,5.821381531,1,1.567948141
8,28,1,1,47,'FacePics\set47 (1).jpg',-1,3,2,2,Absent,1,1.644089296,2,0.943984956
8,29,6,1,6,'FacePics\set6 (1).jpg',-1,2,7,2,FoilPick,0,2.672904748,2,1.335965497
8,30,6,1,11,'FacePics\set11 (1).jpg',-1,2,7,7,Absent,1,7.16248167,2,0.983983147
8,31,3,2,20,'FacePics\set20 (1).jpg',2,-1,1,4,Absent,0,3.947548003,3,0.823977233
8,32,6,2,53,'FacePics\set53 (1).jpg',2,-1,1,1,TargetPick,1,8.982893616,2,1.151983376
8,33,3,1,26,'FacePics\set26 (1).jpg',-1,4,4,3,FoilPick,0,9.508734414,2,0.887987232
8,34,6,2,48,'FacePics\set48 (1).jpg',2,-1,1,1,TargetPick,1,2.445239194,3,1.111964016
8,35,6,2,40,'FacePics\set40 (1).jpg',7,-1,1,1,TargetPick,1,13.7681556,1,1.279963924
8,36,3,2,43,'FacePics\set43 (1).jpg',3,-1,1,1,TargetPick,1,2.935264182,1,2.12797285
8,37,1,1,16,'FacePics\set16 (1).jpg',-1,3,2,2,Absent,1,1.012048726,3,2.263945467
8,38,6,2,19,'FacePics\set19 (1).jpg',6,-1,1,1,TargetPick,1,5.091315758,1,1.295983663
8,39,1,1,39,'FacePics\set39 (1).jpg',-1,3,2,2,Absent,1,1.643517425,3,1.063974718
8,40,6,2,3,'FacePics\set3 (1).jpg',7,-1,1,7,Absent,0,3.864831469,3,0.799994291
8,41,3,2,21,'FacePics\set21 (1).jpg',3,-1,1,4,Absent,0,2.195063191,1,2.679947438
8,42,6,2,55,'FacePics\set55 (1).jpg',7,-1,1,6,FoilPick,0,7.105711296,2,1.735953501
8,43,3,2,15,'FacePics\set15 (1).jpg',2,-1,1,4,Absent,0,2.099342145,2,1.071977372
8,44,1,1,28,'FacePics\set28 (1).jpg',-1,3,2,2,Absent,1,0.723966685,2,0.855991694
8,45,1,1,42,'FacePics\set42 (1).jpg',-1,3,2,2,Absent,1,0.693136056,2,0.943988805
8,46,3,2,54,'FacePics\set54 (1).jpg',2,-1,1,4,Absent,0,2.288864638,2,1.039976381
8,47,1,2,23,'FacePics\set23 (1).jpg',3,-1,1,2,Absent,0,0.559547781,2,1.39195424
8,48,1,1,14,'FacePics\set14 (1).jpg',-1,3,2,2,Absent,1,0.905205241,2,1.015991515
8,49,6,2,5,'FacePics\set5 (1).jpg',3,-1,1,7,Absent,0,9.589335702,1,0.655987268
8,50,3,2,2,'FacePics\set2 (1).jpg',4,-1,1,4,Absent,0,8.517729741,3,1.543966161
8,51,6,2,45,'FacePics\set45 (1).jpg',4,-1,1,2,FoilPick,0,11.17069601,1,1.439952518
8,52,1,2,49,'FacePics\set49 (1).jpg',3,-1,1,2,Absent,0,1.323325665,3,1.255980982
8,53,6,1,41,'FacePics\set41 (1).jpg',-1,7,7,7,Absent,1,6.21549175,1,0.799987235
8,54,1,1,4,'FacePics\set4 (1).jpg',-1,3,2,2,Absent,1,0.812896813,3,1.19996241
8,55,1,2,10,'FacePics\set10 (1).jpg',3,-1,1,2,Absent,0,5.58383927,1,1.055962123
8,56,3,2,27,'FacePics\set27 (1).jpg',4,-1,1,4,Absent,0,3.344265796,3,0.767996508
8,57,6,2,22,'FacePics\set22 (1).jpg',3,-1,1,7,Absent,0,10.00354124,1,0.671983594
8,58,3,1,60,'FacePics\set60 (1).jpg',-1,3,4,4,Absent,1,3.387886686,1,3.239942319
8,59,1,2,29,'FacePics\set29 (1).jpg',3,-1,1,2,Absent,0,2.125484594,3,0.927995045
8,60,6,1,33,'FacePics\set33 (1).jpg',-1,5,7,3,FoilPick,0,7.318153496,2,1.415986896
9,1,3,1,52,'FacePics\set52 (1).jpg',-1,3,4,2,FoilPick,0,4.780358923,2,1.983992082
9,2,1,1,21,'FacePics\set21 (1).jpg',-1,3,2,2,Absent,1,1.615909396,3,1.511942273
9,3,3,2,50,'FacePics\set50 (1).jpg',2,-1,1,1,TargetPick,1,2.101226436,3,1.463975929
9,4,1,2,8,'FacePics\set8 (1).jpg',3,-1,1,1,TargetPick,1,3.153570501,3,0.97599999
9,5,3,1,20,'FacePics\set20 (1).jpg',-1,4,4,4,Absent,1,3.323254114,3,1.127991823
9,6,3,2,39,'FacePics\set39 (1).jpg',2,-1,1,1,TargetPick,1,3.21967124,3,1.351980479
9,7,6,1,14,'FacePics\set14 (1).jpg',-1,7,7,2,FoilPick,0,10.00107223,2,0.967996993
9,8,3,2,37,'FacePics\set37 (1).jpg',3,-1,1,1,TargetPick,1,2.946769429,3,1.16796896
9,9,6,2,58,'FacePics\set58 (1).jpg',7,-1,1,1,TargetPick,1,3.638429211,3,1.18398169
9,10,1,1,45,'FacePics\set45 (1).jpg',-1,3,2,2,Absent,1,1.957184038,3,1.007971244
9,11,6,2,34,'FacePics\set34 (1).jpg',5,-1,1,1,TargetPick,1,3.144628069,3,0.975984915
9,12,1,1,6,'FacePics\set6 (1).jpg',-1,3,2,2,Absent,1,1.5668131,3,1.231954448
9,13,3,1,3,'FacePics\set3 (1).jpg',-1,3,4,4,Absent,1,3.500846749,3,0.919982218
9,14,3,2,44,'FacePics\set44 (1).jpg',4,-1,1,4,Absent,0,4.441808289,2,0.871999518
9,15,6,1,22,'FacePics\set22 (1).jpg',-1,3,7,7,Absent,1,5.633725301,2,1.231982031
9,16,1,1,40,'FacePics\set40 (1).jpg',-1,3,2,2,Absent,1,1.760794367,2,1.199979024
9,17,1,1,10,'FacePics\set10 (1).jpg',-1,3,2,2,Absent,1,2.485519432,2,4.999913722
9,18,6,1,16,'FacePics\set16 (1).jpg',-1,7,7,7,Absent,1,7.132623253,2,1.399961255
9,19,1,2,7,'FacePics\set7 (1).jpg',3,-1,1,2,Absent,0,2.488889081,3,1.271963339
9,20,1,2,25,'FacePics\set25 (1).jpg',3,-1,1,2,Absent,0,3.222018384,3,0.927982008
9,21,1,1,51,'FacePics\set51 (1).jpg',-1,3,2,2,Absent,1,1.01911842,3,0.831950535
9,22,3,2,41,'FacePics\set41 (1).jpg',4,-1,1,4,Absent,0,6.924078341,3,0.648029464
9,23,6,2,53,'FacePics\set53 (1).jpg',5,-1,1,7,Absent,0,6.735878656,2,0.775994986
9,24,1,2,11,'FacePics\set11 (1).jpg',3,-1,1,2,Absent,0,2.982033356,1,0.800011354
9,25,6,2,57,'FacePics\set57 (1).jpg',5,-1,1,4,FoilPick,0,5.145688421,2,0.703996238
9,26,1,2,17,'FacePics\set17 (1).jpg',3,-1,1,2,Absent,0,3.050243574,2,1.015973279
9,27,3,1,1,'FacePics\set1 (1).jpg',-1,2,4,4,Absent,1,2.041978536,3,0.888010964
9,28,1,1,43,'FacePics\set43 (1).jpg',-1,3,2,1,InnocentPick,0,2.50402075,1,1.063993185
9,29,3,1,5,'FacePics\set5 (1).jpg',-1,4,4,4,Absent,1,2.834542728,3,1.431982544
9,30,3,1,9,'FacePics\set9 (1).jpg',-1,3,4,4,Absent,1,2.713545509,3,0.807993182
9,31,6,2,19,'FacePics\set19 (1).jpg',2,-1,1,7,Absent,0,7.605139091,3,0.783987399
9,32,1,2,26,'FacePics\set26 (1).jpg',3,-1,1,2,Absent,0,3.487656494,3,0.792004829
9,33,6,1,12,'FacePics\set12 (1).jpg',-1,2,7,6,FoilPick,0,4.581110214,2,0.94398736
9,34,1,2,36,'FacePics\set36 (1).jpg',3,-1,1,2,Absent,0,1.251109111,3,0.671990345
9,35,1,2,31,'FacePics\set31 (1).jpg',3,-1,1,2,Absent,0,3.410331609,2,1.359972891
9,36,6,2,46,'FacePics\set46 (1).jpg',2,-1,1,7,Absent,0,4.084481467,3,1.095981759
9,37,6,1,42,'FacePics\set42 (1).jpg',-1,5,7,2,FoilPick,0,5.42571281,2,0.799991789
9,38,6,2,33,'FacePics\set33 (1).jpg',5,-1,1,7,Absent,0,4.731836745,3,0.815989444
9,39,3,2,18,'FacePics\set18 (1).jpg',4,-1,1,1,TargetPick,1,2.560555226,2,1.287967729
9,40,3,2,49,'FacePics\set49 (1).jpg',4,-1,1,1,TargetPick,1,2.768971844,3,1.383966487
9,41,1,2,55,'FacePics\set55 (1).jpg',3,-1,1,2,Absent,0,1.333987214,3,0.807986447
9,42,1,1,32,'FacePics\set32 (1).jpg',-1,3,2,2,Absent,1,0.892408257,2,1.311974475
9,43,6,2,47,'FacePics\set47 (1).jpg',5,-1,1,7,Absent,0,4.695154204,3,0.943971644
9,44,1,1,23,'FacePics\set23 (1).jpg',-1,3,2,2,Absent,1,1.000431076,3,0.808020124
9,45,6,1,15,'FacePics\set15 (1).jpg',-1,6,7,6,FoilPick,0,4.114701184,2,0.991981608
9,46,3,2,35,'FacePics\set35 (1).jpg',4,-1,1,4,Absent,0,5.01607977,3,1.047997455
9,47,3,1,4,'FacePics\set4 (1).jpg',-1,2,4,4,Absent,1,2.367217356,3,0.815999708
9,48,6,1,30,'FacePics\set30 (1).jpg',-1,5,7,5,FoilPick,0,3.993726096,3,2.431957527
9,49,6,2,13,'FacePics\set13 (1).jpg',6,-1,1,4,FoilPick,0,6.739309245,2,1.279985901
9,50,3,1,38,'FacePics\set38 (1).jpg',-1,3,4,4,Absent,1,1.994424979,1,4.495929864
9,51,6,2,2,'FacePics\set2 (1).jpg',6,-1,1,7,Absent,0,5.395262805,3,0.999981718
9,52,3,2,48,'FacePics\set48 (1).jpg',3,-1,1,1,TargetPick,1,3.389828901,1,1.615967121
9,53,3,1,27,'FacePics\set27 (1).jpg',-1,2,4,4,Absent,1,2.479248408,3,0.640003374
9,54,1,1,54,'FacePics\set54 (1).jpg',-1,3,2,2,Absent,1,1.538273076,3,0.863988502
9,55,6,1,59,'FacePics\set59 (1).jpg',-1,7,7,7,Absent,1,4.555368289,3,0.720012496
9,56,6,1,60,'FacePics\set60 (1).jpg',-1,6,7,7,Absent,1,4.416700779,3,1.655975049
9,57,3,2,56,'FacePics\set56 (1).jpg',4,-1,1,4,Absent,0,2.202234765,3,0.79998345
9,58,1,2,28,'FacePics\set28 (1).jpg',3,-1,1,1,TargetPick,1,1.749635972,2,1.271969112
9,59,3,1,24,'FacePics\set24 (1).jpg',-1,3,4,4,Absent,1,5.471024745,2,2.51994559
9,60,6,1,29,'FacePics\set29 (1).jpg',-1,7,7,7,Absent,1,4.943660217,3,0.791984623
10,1,3,2,29,'FacePics\set29 (1).jpg',3,-1,1,1,TargetPick,1,6.981846084,3,3.311934383
10,2,1,1,31,'FacePics\set31 (1).jpg',-1,3,2,2,Absent,1,3.431994136,2,1.623973966
10,3,3,1,52,'FacePics\set52 (1).jpg',-1,2,4,2,FoilPick,0,4.328258271,2,0.871984764
10,4,6,2,16,'FacePics\set16 (1).jpg',7,-1,1,1,TargetPick,1,3.200255864,3,2.41595891
10,5,3,2,6,'FacePics\set6 (1).jpg',3,-1,1,4,Absent,0,2.889927084,2,3.863925638
10,6,3,2,38,'FacePics\set38 (1).jpg',2,-1,1,3,FoilPick,0,3.388951085,2,1.119970544
10,7,3,1,3,'FacePics\set3 (1).jpg',-1,2,4,4,Absent,1,2.474554479,2,2.191962556
10,8,1,2,46,'FacePics\set46 (1).jpg',3,-1,1,2,Absent,0,1.450627596,2,1.247962045
10,9,3,1,32,'FacePics\set32 (1).jpg',-1,4,4,4,Absent,1,2.436559808,1,1.023978521
10,10,1,2,58,'FacePics\set58 (1).jpg',3,-1,1,2,Absent,0,1.245873139,2,0.903973659
10,11,3,2,28,'FacePics\set28 (1).jpg',3,-1,1,1,TargetPick,1,2.362879122,3,1.239982462
10,12,6,1,13,'FacePics\set13 (1).jpg',-1,5,7,7,Absent,1,3.672817888,1,1.143953876
10,13,6,2,22,'FacePics\set22 (1).jpg',3,-1,1,1,TargetPick,1,5.497566623,2,1.119981449
10,14,3,2,41,'FacePics\set41 (1).jpg',4,-1,1,1,TargetPick,1,1.68255863,3,0.935967685
10,15,6,1,2,'FacePics\set2 (1).jpg',-1,5,7,7,Absent,1,4.97933312,1,2.343961445
10,16,6,2,7,'FacePics\set7 (1).jpg',3,-1,1,7,Absent,0,3.878697165,2,2.47995017
10,17,6,1,48,'FacePics\set48 (1).jpg',-1,6,7,7,Absent,1,5.652300746,2,1.479990262
10,18,3,1,11,'FacePics\set11 (1).jpg',-1,4,4,3,FoilPick,0,2.884264175,2,1.031982801
10,19,1,1,37,'FacePics\set37 (1).jpg',-1,3,2,2,Absent,1,0.938708417,2,1.983972517
10,20,6,1,5,'FacePics\set5 (1).jpg',-1,3,7,2,FoilPick,0,2.360681441,2,1.071990088
10,21,1,1,36,'FacePics\set36 (1).jpg',-1,3,2,2,Absent,1,0.954630057,2,0.879998986
10,22,1,2,17,'FacePics\set17 (1).jpg',3,-1,1,1,TargetPick,1,1.205015261,2,1.19999025
10,23,1,2,54,'FacePics\set54 (1).jpg',3,-1,1,2,Absent,0,0.912640944,3,0.79199649
10,24,6,2,23,'FacePics\set23 (1).jpg',2,-1,1,7,Absent,0,5.802254945,1,1.503974877
10,25,6,1,35,'FacePics\set35 (1).jpg',-1,2,7,7,Absent,1,4.512292882,1,3.431946943
10,26,6,2,18,'FacePics\set18 (1).jpg',4,-1,1,7,Absent,0,5.086064977,1,0.99997819
10,27,6,1,57,'FacePics\set57 (1).jpg',-1,5,7,7,Absent,1,4.803320429,1,0.783981305
10,28,6,2,56,'FacePics\set56 (1).jpg',4,-1,1,7,Absent,0,4.015694604,1,1.007987922
10,29,3,2,8,'FacePics\set8 (1).jpg',2,-1,1,4,Absent,0,3.017127651,1,3.911952921
10,30,6,1,55,'FacePics\set55 (1).jpg',-1,2,7,7,Absent,1,3.698408426,2,1.895967775
10,31,1,1,43,'FacePics\set43 (1).jpg',-1,3,2,2,Absent,1,1.149685147,3,0.623981985
10,32,1,2,42,'FacePics\set42 (1).jpg',3,-1,1,1,TargetPick,1,1.41150137,3,0.687989603
10,33,3,1,40,'FacePics\set40 (1).jpg',-1,4,4,2,FoilPick,0,2.281834024,2,0.91998703
10,34,3,1,39,'FacePics\set39 (1).jpg',-1,3,4,4,Absent,1,1.98378878,2,1.032003649
10,35,1,1,10,'FacePics\set10 (1).jpg',-1,3,2,2,Absent,1,1.314524368,2,0.711973256
10,36,3,2,14,'FacePics\set14 (1).jpg',3,-1,1,4,Absent,0,1.948178779,2,1.17599473
10,37,1,2,25,'FacePics\set25 (1).jpg',3,-1,1,2,Absent,0,1.050874499,2,0.791985264
10,38,6,2,53,'FacePics\set53 (1).jpg',7,-1,1,7,Absent,0,4.259412675,2,0.871999838
10,39,1,1,27,'FacePics\set27 (1).jpg',-1,3,2,2,Absent,1,0.816681316,2,1.279989108
10,40,1,2,51,'FacePics\set51 (1).jpg',3,-1,1,2,Absent,0,1.032964297,2,0.839973417
10,41,1,2,26,'FacePics\set26 (1).jpg',3,-1,1,2,Absent,0,0.818146116,2,2.27194217
10,42,6,1,45,'FacePics\set45 (1).jpg',-1,4,7,7,Absent,1,3.679591184,1,1.639986054
10,43,1,2,12,'FacePics\set12 (1).jpg',3,-1,1,2,Absent,0,1.021614744,2,0.871989575
10,44,3,1,50,'FacePics\set50 (1).jpg',-1,4,4,4,Absent,1,1.321166484,2,2.615965517
10,45,6,2,21,'FacePics\set21 (1).jpg',5,-1,1,7,Absent,0,4.184163592,2,1.383976109
10,46,3,1,60,'FacePics\set60 (1).jpg',-1,4,4,4,Absent,1,2.058769087,2,0.791981095
10,47,6,2,20,'FacePics\set20 (1).jpg',7,-1,1,7,Absent,0,3.189498068,2,1.023974993
10,48,3,2,19,'FacePics\set19 (1).jpg',2,-1,1,4,Absent,0,1.51985615,2,0.999976586
10,49,3,1,4,'FacePics\set4 (1).jpg',-1,2,4,4,Absent,1,1.933386449,2,1.783975532
10,50,1,1,30,'FacePics\set30 (1).jpg',-1,3,2,2,Absent,1,1.075872318,3,0.775977346
10,51,6,1,9,'FacePics\set9 (1).jpg',-1,3,7,7,Absent,1,4.742828716,2,2.007957132
10,52,1,1,59,'FacePics\set59 (1).jpg',-1,3,2,2,Absent,1,1.075065347,3,0.975975614
10,53,1,1,33,'FacePics\set33 (1).jpg',-1,3,2,1,InnocentPick,0,1.874017311,2,0.855980374
10,54,1,1,34,'FacePics\set34 (1).jpg',-1,3,2,2,Absent,1,1.096979292,3,0.83998336
10,55,3,1,44,'FacePics\set44 (1).jpg',-1,3,4,4,Absent,1,2.026493134,2,1.007987602
10,56,1,2,47,'FacePics\set47 (1).jpg',3,-1,1,2,Absent,0,0.868491356,2,0.783983871
10,57,3,2,1,'FacePics\set1 (1).jpg',2,-1,1,4,Absent,0,1.157858134,2,1.039978742
10,58,6,1,15,'FacePics\set15 (1).jpg',-1,7,7,7,Absent,1,4.015441544,2,1.295973612
10,59,3,2,49,'FacePics\set49 (1).jpg',4,-1,1,4,Absent,0,1.237514767,2,0.847953642
10,60,6,2,24,'FacePics\set24 (1).jpg',2,-1,1,7,Absent,0,2.019782702,2,0.768005139
11,1,3,2,19,'FacePics\set19 (1).jpg',3,-1,1,1,TargetPick,1,5.106159983,3,1.967938699
11,2,3,1,30,'FacePics\set30 (1).jpg',-1,2,4,2,FoilPick,0,2.488332305,2,0.99997819
11,3,1,2,41,'FacePics\set41 (1).jpg',3,-1,1,1,TargetPick,1,3.096803919,3,1.135960404
11,4,1,1,58,'FacePics\set58 (1).jpg',-1,3,2,2,Absent,1,1.434591788,2,1.071962246
11,5,6,2,14,'FacePics\set14 (1).jpg',3,-1,1,1,TargetPick,1,6.159318052,2,0.831961938
11,6,1,2,10,'FacePics\set10 (1).jpg',3,-1,1,2,Absent,0,7.546874817,2,0.767981741
11,7,6,1,5,'FacePics\set5 (1).jpg',-1,6,7,5,FoilPick,0,1.781359502,2,2.975986819
11,8,1,1,25,'FacePics\set25 (1).jpg',-1,3,2,2,Absent,1,2.154021809,2,0.727980728
11,9,6,1,29,'FacePics\set29 (1).jpg',-1,2,7,6,FoilPick,0,4.537490208,3,0.695983252
11,10,1,1,37,'FacePics\set37 (1).jpg',-1,3,2,2,Absent,1,1.710686277,3,1.095948164
11,11,3,2,16,'FacePics\set16 (1).jpg',2,-1,1,4,Absent,0,4.516777035,2,0.727957956
11,12,6,1,11,'FacePics\set11 (1).jpg',-1,4,7,4,FoilPick,0,5.998735718,2,0.888017497
11,13,1,1,8,'FacePics\set8 (1).jpg',-1,3,2,2,Absent,1,1.717568858,2,1.015972437
11,14,6,2,7,'FacePics\set7 (1).jpg',4,-1,1,4,FoilPick,0,9.268949592,2,0.871968083
11,15,3,1,43,'FacePics\set43 (1).jpg',-1,4,4,4,Absent,1,1.730181952,3,1.519946784
11,16,1,2,60,'FacePics\set60 (1).jpg',3,-1,1,2,Absent,0,1.748195847,3,0.471981682
11,17,6,2,59,'FacePics\set59 (1).jpg',4,-1,1,5,FoilPick,0,2.725116957,1,1.367978342
11,18,3,1,33,'FacePics\set33 (1).jpg',-1,3,4,1,InnocentPick,0,2.083537816,1,1.103977682
11,19,1,2,28,'FacePics\set28 (1).jpg',3,-1,1,2,Absent,0,7.096042502,1,2.495910511
11,20,6,1,42,'FacePics\set42 (1).jpg',-1,6,7,4,FoilPick,0,2.286970864,2,1.127987335
11,21,3,2,27,'FacePics\set27 (1).jpg',3,-1,1,4,Absent,0,1.974050284,1,1.223978478
11,22,3,2,2,'FacePics\set2 (1).jpg',2,-1,1,4,Absent,0,1.369416224,2,2.0159471
11,23,6,2,6,'FacePics\set6 (1).jpg',2,-1,1,4,FoilPick,0,5.750470476,1,1.303948752
11,24,3,1,31,'FacePics\set31 (1).jpg',-1,2,4,1,InnocentPick,0,4.8853003,2,1.071977
11,25,3,1,53,'FacePics\set53 (1).jpg',-1,2,4,2,FoilPick,0,0.67185433,2,0.895989603
11,26,6,2,49,'FacePics\set49 (1).jpg',5,-1,1,1,TargetPick,1,2.281600532,2,0.607981215
11,27,6,1,52,'FacePics\set52 (1).jpg',-1,7,7,3,FoilPick,0,0.972419363,2,0.695958236
11,28,6,2,38,'FacePics\set38 (1).jpg',4,-1,1,7,Absent,0,0.382872522,2,0.719992585
11,29,6,1,32,'FacePics\set32 (1).jpg',-1,7,7,1,InnocentPick,0,2.83935196,2,0.799972802
11,30,3,2,50,'FacePics\set50 (1).jpg',2,-1,1,3,FoilPick,0,0.632603829,2,1.863951074
11,31,1,2,15,'FacePics\set15 (1).jpg',3,-1,1,2,Absent,0,0.81747421,1,0.935972976
11,32,6,1,24,'FacePics\set24 (1).jpg',-1,6,7,1,InnocentPick,0,0.932749986,2,2.471930686
11,33,6,2,1,'FacePics\set1 (1).jpg',6,-1,1,6,FoilPick,0,2.991716505,2,1.751980438
11,34,6,2,21,'FacePics\set21 (1).jpg',4,-1,1,5,FoilPick,0,13.550306,1,1.455904045
11,35,6,2,23,'FacePics\set23 (1).jpg',6,-1,1,7,Absent,0,7.408019168,2,0.559981795
11,36,3,1,13,'FacePics\set13 (1).jpg',-1,2,4,2,FoilPick,0,1.873456642,1,1.279967324
11,37,1,1,36,'FacePics\set36 (1).jpg',-1,3,2,2,Absent,1,0.886569114,3,0.991972086
11,38,3,2,18,'FacePics\set18 (1).jpg',3,-1,1,2,FoilPick,0,6.167113435,2,0.935970411
11,39,1,2,44,'FacePics\set44 (1).jpg',3,-1,1,1,TargetPick,1,0.84587917,2,0.71198167
11,40,6,1,39,'FacePics\set39 (1).jpg',-1,3,7,7,Absent,1,4.359747768,1,0.855977685
11,41,3,1,26,'FacePics\set26 (1).jpg',-1,4,4,3,FoilPick,0,4.024969324,3,1.463971729
11,42,6,1,45,'FacePics\set45 (1).jpg',-1,7,7,1,InnocentPick,0,6.639349137,2,1.031980797
11,43,3,1,54,'FacePics\set54 (1).jpg',-1,3,4,3,FoilPick,0,1.358134808,1,0.967959226
11,44,3,2,40,'FacePics\set40 (1).jpg',3,-1,1,1,TargetPick,1,0.988545431,2,1.21594896
11,45,6,1,12,'FacePics\set12 (1).jpg',-1,2,7,7,Absent,1,0.935293389,1,1.575951025
11,46,1,1,4,'FacePics\set4 (1).jpg',-1,3,2,2,Absent,1,1.710692371,2,1.335962585
11,47,3,1,9,'FacePics\set9 (1).jpg',-1,2,4,1,InnocentPick,0,9.354642361,2,1.703959208
11,48,1,1,22,'FacePics\set22 (1).jpg',-1,3,2,2,Absent,1,1.737571931,2,0.847974467
11,49,1,2,17,'FacePics\set17 (1).jpg',3,-1,1,2,Absent,0,4.086452625,1,0.76796795
11,50,6,2,35,'FacePics\set35 (1).jpg',5,-1,1,1,TargetPick,1,1.030559357,2,1.831940449
11,51,3,2,51,'FacePics\set51 (1).jpg',3,-1,1,4,Absent,0,1.103365769,1,0.791984017
11,52,1,2,48,'FacePics\set48 (1).jpg',3,-1,1,2,Absent,0,0.448434888,1,1.255988461
11,53,3,2,55,'FacePics\set55 (1).jpg',4,-1,1,3,FoilPick,0,1.079535084,2,1.391955921
11,54,3,1,47,'FacePics\set47 (1).jpg',-1,4,4,3,FoilPick,0,0.401722244,1,0.74399454
11,55,3,2,57,'FacePics\set57 (1).jpg',3,-1,1,1,TargetPick,1,0.407024259,2,0.687972658
11,56,1,2,46,'FacePics\set46 (1).jpg',3,-1,1,1,TargetPick,1,0.536337178,1,0.85596678
11,57,1,2,56,'FacePics\set56 (1).jpg',3,-1,1,1,TargetPick,1,0.501487756,3,0.639977728
11,58,1,1,34,'FacePics\set34 (1).jpg',-1,3,2,1,InnocentPick,0,0.596117714,2,0.799976971
11,59,1,1,3,'FacePics\set3 (1).jpg',-1,3,2,2,Absent,1,0.81667206,1,0.855975761
11,60,1,1,20,'FacePics\set20 (1).jpg',-1,3,2,1,InnocentPick,0,0.861779763,2,0.511996167
12,1,6,2,33,'FacePics\set33 (1).jpg',7,-1,1,6,FoilPick,0,15.03567105,2,1.543965058
12,2,6,2,17,'FacePics\set17 (1).jpg',3,-1,1,1,TargetPick,1,3.857833816,3,1.727954607
12,3,3,1,40,'FacePics\set40 (1).jpg',-1,4,4,1,InnocentPick,0,4.405465502,3,1.279972327
12,4,1,2,23,'FacePics\set23 (1).jpg',3,-1,1,1,TargetPick,1,9.341241458,1,1.263991448
12,5,1,2,52,'FacePics\set52 (1).jpg',3,-1,1,1,TargetPick,1,2.006407946,2,1.687953337
12,6,1,1,49,'FacePics\set49 (1).jpg',-1,3,2,2,Absent,1,2.89428296,2,1.975965497
12,7,6,1,15,'FacePics\set15 (1).jpg',-1,2,7,2,FoilPick,0,10.32625838,1,1.023968432
12,8,3,1,8,'FacePics\set8 (1).jpg',-1,2,4,4,Absent,1,4.159681467,1,1.599990186
12,9,3,2,41,'FacePics\set41 (1).jpg',3,-1,1,4,Absent,0,4.706851938,2,0.743991935
12,10,3,2,56,'FacePics\set56 (1).jpg',4,-1,1,1,TargetPick,1,2.70204029,3,1.767962292
12,11,3,2,46,'FacePics\set46 (1).jpg',4,-1,1,1,TargetPick,1,5.076979311,2,0.871934227
12,12,3,1,43,'FacePics\set43 (1).jpg',-1,3,4,3,FoilPick,0,6.251431522,1,2.07994128
12,13,1,1,1,'FacePics\set1 (1).jpg',-1,3,2,2,Absent,1,2.029010374,2,1.055977338
12,14,1,2,11,'FacePics\set11 (1).jpg',3,-1,1,1,TargetPick,1,1.885066997,3,1.256002612
12,15,3,2,53,'FacePics\set53 (1).jpg',2,-1,1,1,TargetPick,1,2.322528248,3,1.991965941
12,16,3,1,2,'FacePics\set2 (1).jpg',-1,3,4,4,Absent,1,5.248794449,2,1.719943641
12,17,1,2,18,'FacePics\set18 (1).jpg',3,-1,1,2,Absent,0,2.452842045,2,0.991971393
12,18,6,2,7,'FacePics\set7 (1).jpg',6,-1,1,1,TargetPick,1,3.26954945,2,1.487978739
12,19,6,2,22,'FacePics\set22 (1).jpg',6,-1,1,1,TargetPick,1,3.616264543,3,1.311966479
12,20,1,1,54,'FacePics\set54 (1).jpg',-1,3,2,2,Absent,1,1.758367549,3,1.031987738
12,21,3,2,27,'FacePics\set27 (1).jpg',4,-1,1,1,TargetPick,1,2.473892441,3,1.495917541
12,22,1,1,37,'FacePics\set37 (1).jpg',-1,3,2,2,Absent,1,3.062316006,2,1.951969802
12,23,6,1,14,'FacePics\set14 (1).jpg',-1,6,7,7,Absent,1,10.49673317,1,1.047980163
12,24,1,1,47,'FacePics\set47 (1).jpg',-1,3,2,2,Absent,1,2.316311787,2,1.295966998
12,25,1,1,55,'FacePics\set55 (1).jpg',-1,3,2,1,InnocentPick,0,5.183387219,1,0.903982903
12,26,1,2,31,'FacePics\set31 (1).jpg',3,-1,1,1,TargetPick,1,1.96663151,2,1.50393845
12,27,6,1,16,'FacePics\set16 (1).jpg',-1,7,7,7,Absent,1,7.311070036,2,2.343943633
12,28,6,2,20,'FacePics\set20 (1).jpg',4,-1,1,1,TargetPick,1,3.62741421,3,2.191950802
12,29,6,1,3,'FacePics\set3 (1).jpg',-1,4,7,2,FoilPick,0,7.094057741,2,1.455939363
12,30,3,1,4,'FacePics\set4 (1).jpg',-1,2,4,4,Absent,1,3.264493083,2,2.031930006
12,31,3,2,9,'FacePics\set9 (1).jpg',3,-1,1,1,TargetPick,1,3.566956542,2,1.567979034
12,32,3,2,58,'FacePics\set58 (1).jpg',3,-1,1,1,TargetPick,1,2.875737494,3,1.791974023
12,33,6,1,32,'FacePics\set32 (1).jpg',-1,2,7,4,FoilPick,0,8.468298524,1,1.167962164
12,34,6,2,39,'FacePics\set39 (1).jpg',3,-1,1,7,Absent,0,9.138423556,1,1.039976574
12,35,1,1,36,'FacePics\set36 (1).jpg',-1,3,2,2,Absent,1,2.116900397,2,0.719970583
12,36,3,2,28,'FacePics\set28 (1).jpg',2,-1,1,4,Absent,0,3.65616831,1,0.879962834
12,37,6,2,34,'FacePics\set34 (1).jpg',7,-1,1,1,TargetPick,1,3.083257674,2,3.511916702
12,38,1,2,35,'FacePics\set35 (1).jpg',3,-1,1,1,TargetPick,1,1.606059758,3,1.135963521
12,39,1,2,57,'FacePics\set57 (1).jpg',3,-1,1,1,TargetPick,1,1.395543284,3,1.031961758
12,40,6,1,48,'FacePics\set48 (1).jpg',-1,4,7,7,Absent,1,7.638911552,1,1.679991443
12,41,3,1,6,'FacePics\set6 (1).jpg',-1,3,4,2,FoilPick,0,3.476980465,2,1.327964678
12,42,1,2,24,'FacePics\set24 (1).jpg',3,-1,1,1,TargetPick,1,2.031821605,2,1.271972586
12,43,6,2,30,'FacePics\set30 (1).jpg',3,-1,1,1,TargetPick,1,7.293588444,1,0.927960316
12,44,6,1,5,'FacePics\set5 (1).jpg',-1,7,7,7,Absent,1,9.120716167,1,0.823982288
12,45,6,2,19,'FacePics\set19 (1).jpg',6,-1,1,1,TargetPick,1,3.426692302,2,1.927957109
12,46,6,2,25,'FacePics\set25 (1).jpg',3,-1,1,1,TargetPick,1,6.355809826,1,1.223966764
12,47,6,1,12,'FacePics\set12 (1).jpg',-1,5,7,1,InnocentPick,0,7.132959536,1,1.911944157
12,48,1,1,60,'FacePics\set60 (1).jpg',-1,3,2,2,Absent,1,2.07720639,1,0.895992464
12,49,1,1,38,'FacePics\set38 (1).jpg',-1,3,2,2,Absent,1,2.24922744,2,1.455972078
12,50,6,1,29,'FacePics\set29 (1).jpg',-1,5,7,7,Absent,1,6.904236611,2,2.343968329
12,51,3,1,10,'FacePics\set10 (1).jpg',-1,3,4,2,FoilPick,0,4.793666863,1,1.695959172
12,52,3,1,51,'FacePics\set51 (1).jpg',-1,4,4,4,Absent,1,3.047401887,1,0.85598061
12,53,3,2,44,'FacePics\set44 (1).jpg',3,-1,1,4,Absent,0,5.541846298,1,0.768002704
12,54,3,1,59,'FacePics\set59 (1).jpg',-1,3,4,2,FoilPick,0,2.796648083,3,1.783962094
12,55,6,1,45,'FacePics\set45 (1).jpg',-1,2,7,7,Absent,1,6.350027959,1,5.727891102
12,56,1,2,21,'FacePics\set21 (1).jpg',3,-1,1,2,Absent,0,3.396060627,2,1.311960706
12,57,1,2,26,'FacePics\set26 (1).jpg',3,-1,1,2,Absent,0,4.146193972,2,0.631970867
12,58,3,1,13,'FacePics\set13 (1).jpg',-1,3,4,3,FoilPick,0,7.81296477,1,0.919982065
12,59,1,1,50,'FacePics\set50 (1).jpg',-1,3,2,1,InnocentPick,0,2.091225662,1,1.463964442
12,60,3,2,42,'FacePics\set42 (1).jpg',3,-1,1,1,TargetPick,1,2.143812524,2,1.559961974
13,1,1,1,59,'FacePics\set59 (1).jpg',-1,3,2,2,Absent,1,2.592004292,2,2.103946922
13,2,1,1,31,'FacePics\set31 (1).jpg',-1,3,2,2,Absent,1,2.165971632,2,1.296007598
13,3,1,2,12,'FacePics\set12 (1).jpg',3,-1,1,1,TargetPick,1,1.247237657,3,1.327986973
13,4,1,1,60,'FacePics\set60 (1).jpg',-1,3,2,1,InnocentPick,0,1.187412882,3,1.128005383
13,5,6,1,34,'FacePics\set34 (1).jpg',-1,3,7,5,FoilPick,0,14.70833229,2,1.35196974
13,6,6,2,57,'FacePics\set57 (1).jpg',5,-1,1,7,Absent,0,6.392353061,3,1.359955764
13,7,1,1,17,'FacePics\set17 (1).jpg',-1,3,2,2,Absent,1,2.316167827,2,1.11999755
13,8,3,1,24,'FacePics\set24 (1).jpg',-1,3,4,2,FoilPick,0,4.215930225,2,0.783984782
13,9,6,2,19,'FacePics\set19 (1).jpg',5,-1,1,1,TargetPick,1,3.753977939,3,2.055985556
13,10,3,2,11,'FacePics\set11 (1).jpg',4,-1,1,1,TargetPick,1,1.691841614,3,1.080066469
13,11,1,2,4,'FacePics\set4 (1).jpg',3,-1,1,2,Absent,0,1.232604365,2,1.095990727
13,12,1,2,43,'FacePics\set43 (1).jpg',3,-1,1,1,TargetPick,1,1.446849758,2,1.391966892
13,13,6,1,49,'FacePics\set49 (1).jpg',-1,2,7,7,Absent,1,5.457514254,2,1.167971424
13,14,1,2,13,'FacePics\set13 (1).jpg',3,-1,1,1,TargetPick,1,1.923058791,3,0.856020966
13,15,6,1,25,'FacePics\set25 (1).jpg',-1,2,7,2,FoilPick,0,5.24603746,3,1.471979157
13,16,6,2,28,'FacePics\set28 (1).jpg',3,-1,1,1,TargetPick,1,3.636684521,3,0.695977192
13,17,6,1,41,'FacePics\set41 (1).jpg',-1,2,7,7,Absent,1,4.066390578,3,1.063996277
13,18,6,1,30,'FacePics\set30 (1).jpg',-1,5,7,7,Absent,1,4.332919264,2,0.967984061
13,19,1,1,35,'FacePics\set35 (1).jpg',-1,3,2,2,Absent,1,1.867587054,3,0.807974605
13,20,6,2,5,'FacePics\set5 (1).jpg',6,-1,1,1,TargetPick,1,6.029570965,2,1.239994458
13,21,3,2,20,'FacePics\set20 (1).jpg',3,-1,1,1,TargetPick,1,3.356512016,2,0.943977879
13,22,3,2,8,'FacePics\set8 (1).jpg',2,-1,1,4,Absent,0,2.28200231,2,0.895991817
13,23,3,2,6,'FacePics\set6 (1).jpg',3,-1,1,2,FoilPick,0,2.414022355,1,1.703994968
13,24,6,2,1,'FacePics\set1 (1).jpg',2,-1,1,1,TargetPick,1,3.401019367,1,3.75195473
13,25,1,2,56,'FacePics\set56 (1).jpg',3,-1,1,1,TargetPick,1,1.540407055,3,0.696016322
13,26,1,1,10,'FacePics\set10 (1).jpg',-1,3,2,2,Absent,1,0.862168208,2,0.728006602
13,27,3,2,40,'FacePics\set40 (1).jpg',3,-1,1,4,Absent,0,2.865237979,2,0.943979483
13,28,1,1,29,'FacePics\set29 (1).jpg',-1,3,2,2,Absent,1,0.89976689,3,1.423982832
13,29,6,1,45,'FacePics\set45 (1).jpg',-1,7,7,2,FoilPick,0,4.080069037,2,1.51198561
13,30,3,2,27,'FacePics\set27 (1).jpg',2,-1,1,1,TargetPick,1,4.009833148,2,1.815964478
13,31,3,1,42,'FacePics\set42 (1).jpg',-1,3,4,4,Absent,1,1.35451543,3,0.751996105
13,32,3,1,2,'FacePics\set2 (1).jpg',-1,2,4,4,Absent,1,2.728674698,2,1.551968971
13,33,3,2,7,'FacePics\set7 (1).jpg',3,-1,1,4,Absent,0,3.055803059,2,0.655989983
13,34,1,2,52,'FacePics\set52 (1).jpg',3,-1,1,2,Absent,0,0.862821869,3,1.247992028
13,35,6,1,50,'FacePics\set50 (1).jpg',-1,3,7,7,Absent,1,4.256372559,1,0.75997828
13,36,6,1,39,'FacePics\set39 (1).jpg',-1,3,7,7,Absent,1,7.529688675,3,0.736004172
13,37,1,2,14,'FacePics\set14 (1).jpg',3,-1,1,2,Absent,0,1.480815456,2,0.84801217
13,38,3,1,15,'FacePics\set15 (1).jpg',-1,4,4,3,FoilPick,0,5.742390363,1,2.767964624
13,39,1,2,26,'FacePics\set26 (1).jpg',3,-1,1,2,Absent,0,1.908052803,2,0.78397997
13,40,6,2,37,'FacePics\set37 (1).jpg',3,-1,1,1,TargetPick,1,4.538346642,2,1.0320076
13,41,1,1,16,'FacePics\set16 (1).jpg',-1,3,2,2,Absent,1,0.909518569,3,0.872003918
13,42,6,2,44,'FacePics\set44 (1).jpg',2,-1,1,6,FoilPick,0,4.234492862,3,0.911967393
13,43,3,1,54,'FacePics\set54 (1).jpg',-1,4,4,4,Absent,1,1.719349599,2,0.736039774
13,44,3,2,47,'FacePics\set47 (1).jpg',3,-1,1,1,TargetPick,1,3.512225844,2,0.767988679
13,45,1,2,21,'FacePics\set21 (1).jpg',3,-1,1,1,TargetPick,1,1.256392445,3,0.71999075
13,46,1,2,51,'FacePics\set51 (1).jpg',3,-1,1,2,Absent,0,1.39692388,2,0.680010276
13,47,3,1,32,'FacePics\set32 (1).jpg',-1,2,4,4,Absent,1,2.769023699,3,1.08001868
13,48,6,1,58,'FacePics\set58 (1).jpg',-1,7,7,5,FoilPick,0,13.34681711,2,0.671976784
13,49,3,2,9,'FacePics\set9 (1).jpg',3,-1,1,1,TargetPick,1,2.400721082,3,0.767980661
13,50,6,1,38,'FacePics\set38 (1).jpg',-1,7,7,3,FoilPick,0,5.318558919,3,0.863990953
13,51,1,1,48,'FacePics\set48 (1).jpg',-1,3,2,2,Absent,1,1.281638274,3,0.78397099
13,52,3,2,55,'FacePics\set55 (1).jpg',3,-1,1,1,TargetPick,1,3.292528247,2,0.687995658
13,53,3,1,46,'FacePics\set46 (1).jpg',-1,4,4,2,FoilPick,0,2.836397012,1,0.855986968
13,54,1,1,33,'FacePics\set33 (1).jpg',-1,3,2,2,Absent,1,0.868084517,2,0.807982944
13,55,6,2,18,'FacePics\set18 (1).jpg',6,-1,1,5,FoilPick,0,7.570600889,2,0.568001316
13,56,6,2,3,'FacePics\set3 (1).jpg',6,-1,1,7,Absent,0,4.805823105,2,1.367977389
13,57,3,1,23,'FacePics\set23 (1).jpg',-1,4,4,4,Absent,1,2.713953204,1,1.007970949
13,58,3,1,36,'FacePics\set36 (1).jpg',-1,2,4,4,Absent,1,1.358469151,2,1.271982172
13,59,3,1,22,'FacePics\set22 (1).jpg',-1,3,4,4,Absent,1,1.299252172,2,2.295959487
13,60,6,2,53,'FacePics\set53 (1).jpg',6,-1,1,1,TargetPick,1,1.943036198,3,0.99998685
14,1,6,1,40,'FacePics\set40 (1).jpg',-1,3,7,7,Absent,1,15.88446239,2,2.231963749
14,2,1,2,43,'FacePics\set43 (1).jpg',3,-1,1,2,Absent,0,8.350562551,2,1.327965715
14,3,1,1,51,'FacePics\set51 (1).jpg',-1,3,2,2,Absent,1,7.90935629,2,2.375991715
14,4,1,1,34,'FacePics\set34 (1).jpg',-1,3,2,2,Absent,1,7.15497055,2,1.4879846
14,5,6,2,57,'FacePics\set57 (1).jpg',5,-1,1,1,TargetPick,1,5.633540595,3,2.399888448
14,6,6,2,47,'FacePics\set47 (1).jpg',5,-1,1,1,TargetPick,1,5.591933157,2,1.64797526
14,7,1,1,33,'FacePics\set33 (1).jpg',-1,3,2,2,Absent,1,2.840543089,2,1.863971182
14,8,6,1,41,'FacePics\set41 (1).jpg',-1,6,7,7,Absent,1,7.996809687,2,2.583958982
14,9,3,1,56,'FacePics\set56 (1).jpg',-1,3,4,3,FoilPick,0,3.025749668,2,6.207903441
14,10,6,2,9,'FacePics\set9 (1).jpg',2,-1,1,2,FoilPick,0,3.151891487,3,2.567955233
14,11,3,2,32,'FacePics\set32 (1).jpg',2,-1,1,1,TargetPick,1,2.333099455,2,2.191971216
14,12,3,2,10,'FacePics\set10 (1).jpg',2,-1,1,1,TargetPick,1,1.787811896,2,2.135948954
14,13,3,1,52,'FacePics\set52 (1).jpg',-1,2,4,4,Absent,1,4.417701512,2,1.295977461
14,14,1,2,28,'FacePics\set28 (1).jpg',3,-1,1,1,TargetPick,1,1.760095521,2,2.039962063
14,15,3,1,13,'FacePics\set13 (1).jpg',-1,3,4,2,FoilPick,0,2.20991097,2,2.02397371
14,16,3,2,20,'FacePics\set20 (1).jpg',4,-1,1,1,TargetPick,1,5.618351836,1,3.399950992
14,17,1,2,6,'FacePics\set6 (1).jpg',3,-1,1,1,TargetPick,1,1.731031095,2,0.927980404
14,18,3,1,5,'FacePics\set5 (1).jpg',-1,3,4,4,Absent,1,4.323376032,2,2.039967516
14,19,6,1,8,'FacePics\set8 (1).jpg',-1,3,7,7,Absent,1,12.45355848,2,1.463969835
14,20,6,2,30,'FacePics\set30 (1).jpg',6,-1,1,7,Absent,0,25.39865366,1,1.551993821
14,21,1,2,37,'FacePics\set37 (1).jpg',3,-1,1,2,Absent,0,2.15671439,2,1.08797363
14,22,3,1,3,'FacePics\set3 (1).jpg',-1,2,4,4,Absent,1,6.709355135,2,0.839986568
14,23,6,2,45,'FacePics\set45 (1).jpg',5,-1,1,7,Absent,0,10.51138841,2,1.015976486
14,24,6,2,14,'FacePics\set14 (1).jpg',7,-1,1,4,FoilPick,0,2.265571121,2,4.983920878
14,25,1,2,1,'FacePics\set1 (1).jpg',3,-1,1,2,Absent,0,5.753386693,2,1.263954248
14,26,3,1,17,'FacePics\set17 (1).jpg',-1,4,4,4,Absent,1,5.810278469,1,2.207965343
14,27,1,1,26,'FacePics\set26 (1).jpg',-1,3,2,2,Absent,1,2.107370166,2,1.287998199
14,28,3,1,25,'FacePics\set25 (1).jpg',-1,3,4,2,FoilPick,0,9.778461809,2,3.0239519
14,29,1,2,2,'FacePics\set2 (1).jpg',3,-1,1,2,Absent,0,3.186907165,2,1.055984735
14,30,3,2,36,'FacePics\set36 (1).jpg',3,-1,1,4,Absent,0,6.507898482,2,2.015962695
14,31,6,2,16,'FacePics\set16 (1).jpg',5,-1,1,7,Absent,0,8.454974527,2,1.263985359
14,32,3,2,59,'FacePics\set59 (1).jpg',2,-1,1,4,Absent,0,11.8668787,2,1.223983204
14,33,6,2,49,'FacePics\set49 (1).jpg',6,-1,1,7,Absent,0,12.15043086,2,1.327968922
14,34,3,2,29,'FacePics\set29 (1).jpg',2,-1,1,4,Absent,0,3.507366061,2,0.879966592
14,35,1,2,31,'FacePics\set31 (1).jpg',3,-1,1,2,Absent,0,3.190829762,2,1.151972589
14,36,1,1,18,'FacePics\set18 (1).jpg',-1,3,2,2,Absent,1,2.067766044,2,0.903988412
14,37,3,2,53,'FacePics\set53 (1).jpg',3,-1,1,4,Absent,0,8.29594415,2,1.047975645
14,38,1,1,35,'FacePics\set35 (1).jpg',-1,3,2,2,Absent,1,3.979910444,2,1.27199028
14,39,1,1,22,'FacePics\set22 (1).jpg',-1,3,2,2,Absent,1,1.740602168,2,1.23206863
14,40,3,2,4,'FacePics\set4 (1).jpg',2,-1,1,4,Absent,0,3.584704416,2,1.53597596
14,41,1,1,38,'FacePics\set38 (1).jpg',-1,3,2,1,InnocentPick,0,2.246711221,2,4.399938483
14,42,3,2,50,'FacePics\set50 (1).jpg',4,-1,1,4,Absent,0,3.095021201,2,1.079980897
14,43,3,1,23,'FacePics\set23 (1).jpg',-1,3,4,4,Absent,1,3.745995339,2,1.023987822
14,44,6,1,11,'FacePics\set11 (1).jpg',-1,6,7,7,Absent,1,5.40429059,2,1.551970728
14,45,6,2,55,'FacePics\set55 (1).jpg',7,-1,1,7,Absent,0,5.270411344,2,1.615980912
14,46,3,1,46,'FacePics\set46 (1).jpg',-1,4,4,4,Absent,1,5.721038895,2,1.151982211
14,47,1,2,19,'FacePics\set19 (1).jpg',3,-1,1,2,Absent,0,13.36839064,2,0.999986208
14,48,1,2,21,'FacePics\set21 (1).jpg',3,-1,1,2,Absent,0,7.833676779,2,1.111908852
14,49,6,1,7,'FacePics\set7 (1).jpg',-1,2,7,7,Absent,1,4.962715162,2,1.687981905
14,50,1,2,24,'FacePics\set24 (1).jpg',3,-1,1,2,Absent,0,3.858813477,2,1.007989205
14,51,1,1,58,'FacePics\set58 (1).jpg',-1,3,2,2,Absent,1,1.494222633,2,0.927989706
14,52,6,1,48,'FacePics\set48 (1).jpg',-1,5,7,7,Absent,1,6.958535335,2,1.407979968
14,53,6,1,39,'FacePics\set39 (1).jpg',-1,4,7,7,Absent,1,9.615503702,2,1.503977443
14,54,3,1,15,'FacePics\set15 (1).jpg',-1,3,4,4,Absent,1,5.938930045,2,1.151997927
14,55,1,1,44,'FacePics\set44 (1).jpg',-1,3,2,2,Absent,1,1.841740074,2,0.839991699
14,56,6,2,54,'FacePics\set54 (1).jpg',2,-1,1,7,Absent,0,4.066470913,2,0.855976204
14,57,3,2,60,'FacePics\set60 (1).jpg',2,-1,1,4,Absent,0,2.864002339,2,1.06397362
14,58,6,1,12,'FacePics\set12 (1).jpg',-1,6,7,7,Absent,1,4.172518641,2,0.960000411
14,59,6,1,42,'FacePics\set42 (1).jpg',-1,6,7,7,Absent,1,4.607896493,2,2.223962677
14,60,6,1,27,'FacePics\set27 (1).jpg',-1,5,7,5,FoilPick,0,24.79042461,1,2.207969191
15,1,1,1,21,'FacePics\set21 (1).jpg',-1,3,2,2,Absent,1,5.525668843,2,3.911938809
15,2,3,1,12,'FacePics\set12 (1).jpg',-1,2,4,3,FoilPick,0,10.61962163,1,2.57597587
15,3,6,1,14,'FacePics\set14 (1).jpg',-1,2,7,4,FoilPick,0,8.449161513,2,1.57600634
15,4,3,1,7,'FacePics\set7 (1).jpg',-1,3,4,4,Absent,1,5.102998539,2,1.655982426
15,5,3,1,55,'FacePics\set55 (1).jpg',-1,2,4,3,FoilPick,0,3.073285263,2,1.367979096
15,6,6,1,38,'FacePics\set38 (1).jpg',-1,6,7,1,InnocentPick,0,8.200756853,2,0.943964267
15,7,3,2,37,'FacePics\set37 (1).jpg',3,-1,1,1,TargetPick,1,4.130221301,3,2.423954851
15,8,3,2,15,'FacePics\set15 (1).jpg',2,-1,1,1,TargetPick,1,3.061195452,3,1.879977176
15,9,3,1,52,'FacePics\set52 (1).jpg',-1,2,4,1,InnocentPick,0,5.48063659,2,1.615978026
15,10,1,1,45,'FacePics\set45 (1).jpg',-1,3,2,2,Absent,1,9.183355017,1,1.615956216
15,11,6,1,35,'FacePics\set35 (1).jpg',-1,6,7,2,FoilPick,0,6.165685046,2,1.463974005
15,12,3,1,10,'FacePics\set10 (1).jpg',-1,2,4,2,FoilPick,0,2.445821693,2,1.167985959
15,13,1,2,51,'FacePics\set51 (1).jpg',3,-1,1,1,TargetPick,1,1.69687563,3,1.712011744
15,14,3,2,32,'FacePics\set32 (1).jpg',3,-1,1,1,TargetPick,1,5.250707588,2,2.351966687
15,15,6,1,56,'FacePics\set56 (1).jpg',-1,5,7,4,FoilPick,0,14.52853269,1,1.623972042
15,16,3,1,24,'FacePics\set24 (1).jpg',-1,4,4,2,FoilPick,0,10.55250544,1,2.399973764
15,17,3,1,2,'FacePics\set2 (1).jpg',-1,4,4,4,Absent,1,4.745746127,2,3.295948274
15,18,3,2,58,'FacePics\set58 (1).jpg',3,-1,1,1,TargetPick,1,2.696730658,2,2.303967308
15,19,1,2,1,'FacePics\set1 (1).jpg',3,-1,1,1,TargetPick,1,1.482804121,3,1.199972288
15,20,6,2,23,'FacePics\set23 (1).jpg',4,-1,1,1,TargetPick,1,4.072255381,2,1.399964783
15,21,6,1,6,'FacePics\set6 (1).jpg',-1,5,7,6,FoilPick,0,5.560743536,2,1.143970875
15,22,6,2,18,'FacePics\set18 (1).jpg',4,-1,1,7,Absent,0,5.155585079,2,1.863956429
15,23,6,2,5,'FacePics\set5 (1).jpg',3,-1,1,1,TargetPick,1,3.225750823,3,1.823985706
15,24,3,1,29,'FacePics\set29 (1).jpg',-1,2,4,3,FoilPick,0,2.120496916,1,1.679965758
15,25,6,2,31,'FacePics\set31 (1).jpg',4,-1,1,7,Absent,0,5.442110139,1,1.295966877
15,26,3,2,28,'FacePics\set28 (1).jpg',2,-1,1,1,TargetPick,1,3.14968675,3,1.784000228
15,27,1,2,41,'FacePics\set41 (1).jpg',3,-1,1,1,TargetPick,1,1.835323757,3,1.495979899
15,28,3,2,42,'FacePics\set42 (1).jpg',4,-1,1,1,TargetPick,1,2.048432417,2,1.399988197
15,29,1,2,4,'FacePics\set4 (1).jpg',3,-1,1,1,TargetPick,1,2.169682375,3,1.00799113
15,30,1,2,47,'FacePics\set47 (1).jpg',3,-1,1,1,TargetPick,1,1.565653037,3,0.92800029
15,31,3,1,8,'FacePics\set8 (1).jpg',-1,2,4,3,FoilPick,0,2.387903242,2,1.727963854
15,32,1,1,49,'FacePics\set49 (1).jpg',-1,3,2,2,Absent,1,1.393595659,2,1.295970405
15,33,3,2,33,'FacePics\set33 (1).jpg',4,-1,1,3,FoilPick,0,3.504369427,1,1.919970672
15,34,3,2,34,'FacePics\set34 (1).jpg',3,-1,1,3,FoilPick,0,2.753034204,2,1.127987011
15,35,1,2,16,'FacePics\set16 (1).jpg',3,-1,1,1,TargetPick,1,2.425511746,2,1.527968152
15,36,6,2,13,'FacePics\set13 (1).jpg',6,-1,1,7,Absent,0,7.596004897,1,1.543993069
15,37,1,1,17,'FacePics\set17 (1).jpg',-1,3,2,2,Absent,1,2.120056545,2,0.887955156
15,38,1,2,11,'FacePics\set11 (1).jpg',3,-1,1,1,TargetPick,1,2.667359607,1,1.519987928
15,39,1,1,43,'FacePics\set43 (1).jpg',-1,3,2,1,InnocentPick,0,1.470483701,1,1.279980448
15,40,6,1,48,'FacePics\set48 (1).jpg',-1,7,7,2,FoilPick,0,5.848024249,2,1.223969412
15,41,3,2,60,'FacePics\set60 (1).jpg',4,-1,1,2,FoilPick,0,2.158672481,2,1.079986991
15,42,6,1,26,'FacePics\set26 (1).jpg',-1,5,7,1,InnocentPick,0,3.151842415,2,1.439976881
15,43,6,2,36,'FacePics\set36 (1).jpg',5,-1,1,6,FoilPick,0,3.056213465,2,1.015953393
15,44,6,2,3,'FacePics\set3 (1).jpg',2,-1,1,7,Absent,0,4.401010426,2,1.575990303
15,45,3,2,20,'FacePics\set20 (1).jpg',3,-1,1,1,TargetPick,1,2.746844968,3,1.487986203
15,46,1,1,25,'FacePics\set25 (1).jpg',-1,3,2,2,Absent,1,1.420520137,2,0.87200048
15,47,1,1,39,'FacePics\set39 (1).jpg',-1,3,2,2,Absent,1,1.980770336,2,0.91998286
15,48,1,1,57,'FacePics\set57 (1).jpg',-1,3,2,2,Absent,1,0.73955657,2,1.183970143
15,49,1,2,54,'FacePics\set54 (1).jpg',3,-1,1,1,TargetPick,1,0.962612847,1,1.959967696
15,50,6,1,40,'FacePics\set40 (1).jpg',-1,6,7,5,FoilPick,0,4.213319749,2,2.279966015
15,51,6,2,9,'FacePics\set9 (1).jpg',3,-1,1,1,TargetPick,1,2.945609366,3,1.255970174
15,52,1,2,59,'FacePics\set59 (1).jpg',3,-1,1,2,Absent,0,1.788567229,1,1.439986183
15,53,1,1,19,'FacePics\set19 (1).jpg',-1,3,2,2,Absent,1,1.310632561,1,0.983987591
15,54,6,1,53,'FacePics\set53 (1).jpg',-1,4,7,1,InnocentPick,0,4.718727673,2,1.51197178
15,55,6,2,22,'FacePics\set22 (1).jpg',2,-1,1,7,Absent,0,2.80647294,3,1.503988348
15,56,1,1,44,'FacePics\set44 (1).jpg',-1,3,2,1,InnocentPick,0,2.820792826,2,1.495916714
15,57,6,1,27,'FacePics\set27 (1).jpg',-1,2,7,7,Absent,1,5.607815668,1,2.167967998
15,58,6,2,46,'FacePics\set46 (1).jpg',6,-1,1,4,FoilPick,0,3.208421153,1,1.487963752
15,59,3,1,30,'FacePics\set30 (1).jpg',-1,4,4,3,FoilPick,0,2.341795882,2,1.079977369
15,60,1,2,50,'FacePics\set50 (1).jpg',3,-1,1,2,Absent,0,1.464365989,1,1.048034339
16,1,1,2,34,'FacePics\set34 (1).jpg',3,-1,1,1,TargetPick,1,3.49731853,2,4.495879079
16,2,6,2,9,'FacePics\set9 (1).jpg',6,-1,1,1,TargetPick,1,3.900358938,3,1.559971853
16,3,6,1,41,'FacePics\set41 (1).jpg',-1,2,7,7,Absent,1,6.162352459,2,1.511958641
16,4,3,1,2,'FacePics\set2 (1).jpg',-1,4,4,4,Absent,1,3.752930453,2,1.247959585
16,5,1,2,10,'FacePics\set10 (1).jpg',3,-1,1,2,Absent,0,3.252296847,2,1.007955108
16,6,6,1,46,'FacePics\set46 (1).jpg',-1,2,7,7,Absent,1,5.903787881,2,1.031974062
16,7,1,1,42,'FacePics\set42 (1).jpg',-1,3,2,2,Absent,1,1.73280903,2,0.823960324
16,8,6,1,8,'FacePics\set8 (1).jpg',-1,4,7,7,Absent,1,7.606136695,2,1.103994681
16,9,3,1,1,'FacePics\set1 (1).jpg',-1,3,4,3,FoilPick,0,3.34725331,2,1.015949666
16,10,1,2,51,'FacePics\set51 (1).jpg',3,-1,1,2,Absent,0,2.480870127,2,1.263953191
16,11,6,2,60,'FacePics\set60 (1).jpg',7,-1,1,6,FoilPick,0,4.517885449,2,1.175948267
16,12,1,1,40,'FacePics\set40 (1).jpg',-1,3,2,2,Absent,1,1.117149177,2,1.055958056
16,13,1,2,21,'FacePics\set21 (1).jpg',3,-1,1,1,TargetPick,1,1.30678499,3,1.087983755
16,14,6,1,56,'FacePics\set56 (1).jpg',-1,2,7,7,Absent,1,5.141584441,1,1.295962533
16,15,6,2,53,'FacePics\set53 (1).jpg',7,-1,1,1,TargetPick,1,7.360570409,1,1.55195773
16,16,1,2,27,'FacePics\set27 (1).jpg',3,-1,1,1,TargetPick,1,1.678796533,3,1.751932008
16,17,3,2,47,'FacePics\set47 (1).jpg',2,-1,1,1,TargetPick,1,2.968861131,3,1.399979024
16,18,6,2,13,'FacePics\set13 (1).jpg',2,-1,1,1,TargetPick,1,8.228728522,2,3.695909484
16,19,6,1,3,'FacePics\set3 (1).jpg',-1,5,7,1,InnocentPick,0,5.329348143,2,2.15195401
16,20,3,2,29,'FacePics\set29 (1).jpg',2,-1,1,1,TargetPick,1,1.568088296,3,1.159987376
16,21,6,2,11,'FacePics\set11 (1).jpg',3,-1,1,7,Absent,0,10.00336673,1,1.311922142
16,22,6,1,57,'FacePics\set57 (1).jpg',-1,2,7,7,Absent,1,4.052300439,2,2.703929059
16,23,1,1,24,'FacePics\set24 (1).jpg',-1,3,2,2,Absent,1,1.384512709,1,1.103968061
16,24,1,2,20,'FacePics\set20 (1).jpg',3,-1,1,1,TargetPick,1,1.433312034,3,1.207964666
16,25,1,1,32,'FacePics\set32 (1).jpg',-1,3,2,2,Absent,1,1.259502726,2,1.007981087
16,26,3,2,37,'FacePics\set37 (1).jpg',2,-1,1,3,FoilPick,0,3.30308984,2,1.007958636
16,27,1,2,4,'FacePics\set4 (1).jpg',3,-1,1,2,Absent,0,1.350728116,2,1.143965225
16,28,3,2,25,'FacePics\set25 (1).jpg',4,-1,1,4,Absent,0,2.150346831,1,1.127964884
16,29,1,1,14,'FacePics\set14 (1).jpg',-1,3,2,1,InnocentPick,0,1.691637987,2,0.775958338
16,30,1,2,38,'FacePics\set38 (1).jpg',3,-1,1,1,TargetPick,1,1.421225902,3,0.951969469
16,31,3,2,15,'FacePics\set15 (1).jpg',3,-1,1,1,TargetPick,1,2.07673442,3,0.903958823
16,32,3,1,36,'FacePics\set36 (1).jpg',-1,4,4,4,Absent,1,2.567466076,1,1.071956473
16,33,6,1,31,'FacePics\set31 (1).jpg',-1,4,7,5,FoilPick,0,4.137242376,1,0.863967432
16,34,3,2,50,'FacePics\set50 (1).jpg',2,-1,1,1,TargetPick,1,2.723343918,3,1.047982421
16,35,3,1,23,'FacePics\set23 (1).jpg',-1,4,4,4,Absent,1,2.27372012,2,0.959962423
16,36,3,1,17,'FacePics\set17 (1).jpg',-1,3,4,2,FoilPick,0,3.187191203,1,1.21595762
16,37,1,1,5,'FacePics\set5 (1).jpg',-1,3,2,1,InnocentPick,0,1.774635648,3,0.871976743
16,38,6,1,39,'FacePics\set39 (1).jpg',-1,3,7,7,Absent,1,4.397228437,2,0.75198108
16,39,1,1,52,'FacePics\set52 (1).jpg',-1,3,2,2,Absent,1,1.338096099,1,1.031968609
16,40,3,2,28,'FacePics\set28 (1).jpg',4,-1,1,4,Absent,0,4.223527857,2,0.839959703
16,41,6,1,43,'FacePics\set43 (1).jpg',-1,3,7,7,Absent,1,3.525075932,2,1.623932805
16,42,3,1,12,'FacePics\set12 (1).jpg',-1,2,4,4,Absent,1,1.921671238,2,1.111988918
16,43,6,1,6,'FacePics\set6 (1).jpg',-1,6,7,7,Absent,1,4.333071517,2,0.639993444
16,44,3,1,45,'FacePics\set45 (1).jpg',-1,2,4,2,FoilPick,0,3.455744328,2,0.807964153
16,45,1,1,22,'FacePics\set22 (1).jpg',-1,3,2,1,InnocentPick,0,1.112662141,2,0.91197904
16,46,6,2,30,'FacePics\set30 (1).jpg',6,-1,1,1,TargetPick,1,3.66093691,2,0.903966521
16,47,3,1,59,'FacePics\set59 (1).jpg',-1,3,4,4,Absent,1,2.236558223,2,0.887941804
16,48,3,2,58,'FacePics\set58 (1).jpg',3,-1,1,1,TargetPick,1,1.542540093,2,1.159955303
16,49,6,2,26,'FacePics\set26 (1).jpg',2,-1,1,7,Absent,0,2.903241996,1,1.15995851
16,50,1,1,33,'FacePics\set33 (1).jpg',-1,3,2,2,Absent,1,1.864343337,2,1.64798255
16,51,3,1,48,'FacePics\set48 (1).jpg',-1,2,4,4,Absent,1,3.862002958,1,0.839984721
16,52,6,2,7,'FacePics\set7 (1).jpg',6,-1,1,7,Absent,0,4.178978547,2,1.583953602
16,53,1,2,55,'FacePics\set55 (1).jpg',3,-1,1,2,Absent,0,1.392066902,1,0.863965828
16,54,3,2,16,'FacePics\set16 (1).jpg',3,-1,1,4,Absent,0,2.505100443,2,1.295955798
16,55,1,2,49,'FacePics\set49 (1).jpg',3,-1,1,2,Absent,0,1.236889218,2,0.815974426
16,56,3,2,19,'FacePics\set19 (1).jpg',3,-1,1,4,Absent,0,1.808415751,2,0.775966357
16,57,6,2,18,'FacePics\set18 (1).jpg',6,-1,1,7,Absent,0,4.563183347,2,1.151978706
16,58,3,1,54,'FacePics\set54 (1).jpg',-1,3,4,4,Absent,1,1.968510571,2,0.911958192
16,59,1,1,35,'FacePics\set35 (1).jpg',-1,3,2,1,InnocentPick,0,1.257264981,2,1.495937132
16,60,6,2,44,'FacePics\set44 (1).jpg',3,-1,1,7,Absent,0,2.527294434,1,0.823988869
17,1,3,2,20,'FacePics\set20 (1).jpg',4,-1,1,1,TargetPick,1,3.040738127,2,4.087928474
17,2,3,2,46,'FacePics\set46 (1).jpg',2,-1,1,3,FoilPick,0,7.660812402,2,3.383864347
17,3,6,2,15,'FacePics\set15 (1).jpg',4,-1,1,1,TargetPick,1,9.904995476,2,4.071806741
17,4,6,1,17,'FacePics\set17 (1).jpg',-1,2,7,7,Absent,1,4.95913775,2,1.815948921
17,5,1,1,27,'FacePics\set27 (1).jpg',-1,3,2,2,Absent,1,8.017756839,1,6.103883424
17,6,6,2,49,'FacePics\set49 (1).jpg',2,-1,1,4,FoilPick,0,10.27204691,2,0.967987784
17,7,3,1,10,'FacePics\set10 (1).jpg',-1,2,4,1,InnocentPick,0,11.13227198,2,1.823982365
17,8,6,1,58,'FacePics\set58 (1).jpg',-1,5,7,7,Absent,1,6.870534771,2,1.239984977
17,9,3,1,43,'FacePics\set43 (1).jpg',-1,4,4,2,FoilPick,0,4.56512311,2,1.104034491
17,10,3,1,41,'FacePics\set41 (1).jpg',-1,4,4,2,FoilPick,0,8.147564613,2,1.519983861
17,11,3,1,40,'FacePics\set40 (1).jpg',-1,4,4,4,Absent,1,17.0565295,1,1.127960983
17,12,1,1,5,'FacePics\set5 (1).jpg',-1,3,2,2,Absent,1,1.728082991,3,2.471998732
17,13,1,2,2,'FacePics\set2 (1).jpg',3,-1,1,2,Absent,0,1.482566623,3,1.663873495
17,14,1,2,47,'FacePics\set47 (1).jpg',3,-1,1,2,Absent,0,10.1203214,2,1.207962818
17,15,6,1,35,'FacePics\set35 (1).jpg',-1,4,7,2,FoilPick,0,11.03460985,2,0.887997175
17,16,1,2,33,'FacePics\set33 (1).jpg',3,-1,1,1,TargetPick,1,1.886494854,3,0.863968047
17,17,6,2,52,'FacePics\set52 (1).jpg',6,-1,1,7,Absent,0,14.23698322,2,1.599962602
17,18,1,1,6,'FacePics\set6 (1).jpg',-1,3,2,1,InnocentPick,0,8.739135511,1,0.959981923
17,19,1,2,23,'FacePics\set23 (1).jpg',3,-1,1,1,TargetPick,1,1.945175524,2,0.975983702
17,20,1,1,39,'FacePics\set39 (1).jpg',-1,3,2,2,Absent,1,1.344021072,2,1.375976517
17,21,6,1,24,'FacePics\set24 (1).jpg',-1,6,7,7,Absent,1,11.01925692,2,1.288002178
17,22,3,2,22,'FacePics\set22 (1).jpg',2,-1,1,4,Absent,0,4.407190746,2,0.6720038
17,23,1,2,55,'FacePics\set55 (1).jpg',3,-1,1,2,Absent,0,4.047272135,1,1.191964889
17,24,3,1,3,'FacePics\set3 (1).jpg',-1,3,4,4,Absent,1,17.10328622,2,1.583894111
17,25,3,1,54,'FacePics\set54 (1).jpg',-1,3,4,4,Absent,1,3.70767528,2,0.8719707
17,26,3,2,34,'FacePics\set34 (1).jpg',4,-1,1,1,TargetPick,1,8.423350325,2,1.70395219
17,27,3,1,31,'FacePics\set31 (1).jpg',-1,3,4,4,Absent,1,5.411250286,2,0.959982886
17,28,6,1,9,'FacePics\set9 (1).jpg',-1,5,7,1,InnocentPick,0,7.712635122,2,2.75194245
17,29,6,2,30,'FacePics\set30 (1).jpg',6,-1,1,7,Absent,0,13.550776,2,1.983975129
17,30,6,1,26,'FacePics\set26 (1).jpg',-1,5,7,7,Absent,1,28.19813871,1,1.039990173
17,31,1,1,29,'FacePics\set29 (1).jpg',-1,3,2,2,Absent,1,1.792979501,2,1.575959775
17,32,1,1,37,'FacePics\set37 (1).jpg',-1,3,2,2,Absent,1,2.026215577,2,2.335971591
17,33,3,1,19,'FacePics\set19 (1).jpg',-1,3,4,2,FoilPick,0,8.945836879,1,1.080006646
17,34,1,1,16,'FacePics\set16 (1).jpg',-1,3,2,1,InnocentPick,0,8.86614712,2,1.375980366
17,35,1,2,38,'FacePics\set38 (1).jpg',3,-1,1,2,Absent,0,5.345361422,2,1.751968429
17,36,3,2,8,'FacePics\set8 (1).jpg',4,-1,1,4,Absent,0,2.843419213,2,1.007978277
17,37,3,2,36,'FacePics\set36 (1).jpg',4,-1,1,4,Absent,0,4.135099257,2,2.007968334
17,38,6,2,12,'FacePics\set12 (1).jpg',6,-1,1,3,FoilPick,0,9.633621471,2,1.359982437
17,39,6,1,25,'FacePics\set25 (1).jpg',-1,5,7,7,Absent,1,24.90350823,2,2.871946324
17,40,3,2,14,'FacePics\set14 (1).jpg',3,-1,1,4,Absent,0,6.695923879,2,1.239917302
17,41,1,1,59,'FacePics\set59 (1).jpg',-1,3,2,2,Absent,1,3.420479428,2,1.839930259
17,42,1,2,57,'FacePics\set57 (1).jpg',3,-1,1,1,TargetPick,1,2.597280939,2,0.944002918
17,43,3,2,18,'FacePics\set18 (1).jpg',4,-1,1,1,TargetPick,1,12.35427753,2,1.543965199
17,44,6,2,48,'FacePics\set48 (1).jpg',6,-1,1,1,TargetPick,1,7.549802252,2,0.839953352
17,45,6,1,50,'FacePics\set50 (1).jpg',-1,5,7,7,Absent,1,11.04645138,2,1.103980607
17,46,3,1,13,'FacePics\set13 (1).jpg',-1,3,4,4,Absent,1,5.55107621,1,0.879984258
17,47,3,2,44,'FacePics\set44 (1).jpg',4,-1,1,2,FoilPick,0,8.543326937,2,1.367977071
17,48,3,2,53,'FacePics\set53 (1).jpg',2,-1,1,3,FoilPick,0,3.387994129,2,1.031985595
17,49,6,1,28,'FacePics\set28 (1).jpg',-1,5,7,7,Absent,1,7.388729573,2,0.863977028
17,50,6,2,60,'FacePics\set60 (1).jpg',4,-1,1,4,FoilPick,0,6.578687624,2,2.39994695
17,51,6,2,4,'FacePics\set4 (1).jpg',6,-1,1,7,Absent,0,15.34116621,2,1.159932145
17,52,6,2,51,'FacePics\set51 (1).jpg',4,-1,1,7,Absent,0,4.628258465,2,2.519955315
17,53,1,2,7,'FacePics\set7 (1).jpg',3,-1,1,1,TargetPick,1,1.881074116,2,1.127984397
17,54,1,1,1,'FacePics\set1 (1).jpg',-1,3,2,2,Absent,1,1.020679054,3,0.967927165
17,55,1,2,45,'FacePics\set45 (1).jpg',3,-1,1,1,TargetPick,1,4.336792672,1,1.127975737
17,56,1,2,21,'FacePics\set21 (1).jpg',3,-1,1,1,TargetPick,1,1.825601755,3,1.071986352
17,57,1,1,42,'FacePics\set42 (1).jpg',-1,3,2,2,Absent,1,1.313582701,2,2.167971683
17,58,3,1,56,'FacePics\set56 (1).jpg',-1,3,4,4,Absent,1,5.832761517,2,0.99996087
17,59,6,1,11,'FacePics\set11 (1).jpg',-1,6,7,3,FoilPick,0,9.423702492,2,0.895978018
17,60,6,2,32,'FacePics\set32 (1).jpg',4,-1,1,1,TargetPick,1,5.776653781,2,1.167969117
18,1,6,1,15,'FacePics\set15 (1).jpg',-1,2,7,5,FoilPick,0,18.87708746,2,1.247954761
18,2,3,2,32,'FacePics\set32 (1).jpg',4,-1,1,1,TargetPick,1,2.86878078,3,1.335974362
18,3,6,1,53,'FacePics\set53 (1).jpg',-1,6,7,4,FoilPick,0,5.335623807,1,8.511812784
18,4,6,2,2,'FacePics\set2 (1).jpg',2,-1,1,1,TargetPick,1,3.759576716,3,1.327961471
18,5,6,1,27,'FacePics\set27 (1).jpg',-1,5,7,7,Absent,1,6.481513075,2,1.631964773
18,6,6,1,22,'FacePics\set22 (1).jpg',-1,6,7,6,FoilPick,0,13.85196503,1,1.655945714
18,7,3,2,16,'FacePics\set16 (1).jpg',4,-1,1,1,TargetPick,1,3.126155491,2,0.967955813
18,8,3,1,55,'FacePics\set55 (1).jpg',-1,4,4,4,Absent,1,2.295129569,3,1.007964781
18,9,6,2,34,'FacePics\set34 (1).jpg',7,-1,1,1,TargetPick,1,3.315708808,3,0.751967622
18,10,6,1,18,'FacePics\set18 (1).jpg',-1,6,7,5,FoilPick,0,12.02650705,2,0.71198784
18,11,6,2,29,'FacePics\set29 (1).jpg',7,-1,1,7,Absent,0,12.09884341,2,0.919967952
18,12,3,1,21,'FacePics\set21 (1).jpg',-1,2,4,4,Absent,1,4.759867301,2,1.743960824
18,13,3,1,25,'FacePics\set25 (1).jpg',-1,2,4,3,FoilPick,0,4.712073484,1,0.863979709
18,14,3,2,49,'FacePics\set49 (1).jpg',4,-1,1,1,TargetPick,1,1.962775329,3,0.743982314
18,15,6,2,20,'FacePics\set20 (1).jpg',3,-1,1,1,TargetPick,1,5.542811065,2,0.927989183
18,16,6,2,46,'FacePics\set46 (1).jpg',7,-1,1,1,TargetPick,1,3.807060383,2,0.67198657
18,17,3,1,48,'FacePics\set48 (1).jpg',-1,3,4,4,Absent,1,2.877407876,3,0.823964968
18,18,1,2,17,'FacePics\set17 (1).jpg',3,-1,1,1,TargetPick,1,3.900526363,2,0.887976686
18,19,6,2,38,'FacePics\set38 (1).jpg',2,-1,1,7,Absent,0,3.903905614,2,1.319971673
18,20,3,1,6,'FacePics\set6 (1).jpg',-1,3,4,2,FoilPick,0,4.459887282,1,0.839987864
18,21,1,2,13,'FacePics\set13 (1).jpg',3,-1,1,2,Absent,0,1.466624295,2,0.80797607
18,22,6,2,5,'FacePics\set5 (1).jpg',6,-1,1,1,TargetPick,1,4.38481025,3,0.703980402
18,23,1,2,60,'FacePics\set60 (1).jpg',3,-1,1,2,Absent,0,1.64760953,3,0.919990724
18,24,3,1,58,'FacePics\set58 (1).jpg',-1,3,4,4,Absent,1,5.183666578,2,0.711977898
18,25,6,1,37,'FacePics\set37 (1).jpg',-1,2,7,7,Absent,1,5.223558478,3,0.799996215
18,26,1,1,11,'FacePics\set11 (1).jpg',-1,3,2,1,InnocentPick,0,2.817215455,2,1.320017217
18,27,1,1,42,'FacePics\set42 (1).jpg',-1,3,2,2,Absent,1,1.098368082,2,3.119931004
18,28,1,1,23,'FacePics\set23 (1).jpg',-1,3,2,1,InnocentPick,0,1.628689769,2,1.223983763
18,29,1,2,41,'FacePics\set41 (1).jpg',3,-1,1,1,TargetPick,1,5.870600623,3,0.759981154
18,30,3,2,30,'FacePics\set30 (1).jpg',3,-1,1,4,Absent,0,3.262840983,1,1.551968968
18,31,3,1,26,'FacePics\set26 (1).jpg',-1,2,4,1,InnocentPick,0,6.012912427,1,1.471971239
18,32,3,2,54,'FacePics\set54 (1).jpg',4,-1,1,4,Absent,0,2.602335077,3,0.975957478
18,33,1,1,1,'FacePics\set1 (1).jpg',-1,3,2,2,Absent,1,1.062168148,3,1.191970046
18,34,1,1,39,'FacePics\set39 (1).jpg',-1,3,2,2,Absent,1,1.207830658,2,0.743980389
18,35,1,1,52,'FacePics\set52 (1).jpg',-1,3,2,1,InnocentPick,0,2.005005057,2,0.799997177
18,36,6,1,36,'FacePics\set36 (1).jpg',-1,4,7,7,Absent,1,7.925008611,2,0.66398266
18,37,3,2,33,'FacePics\set33 (1).jpg',4,-1,1,4,Absent,0,3.877882882,2,1.071981631
18,38,1,2,44,'FacePics\set44 (1).jpg',3,-1,1,1,TargetPick,1,2.586688403,2,1.303994001
18,39,6,2,14,'FacePics\set14 (1).jpg',4,-1,1,1,TargetPick,1,5.295748586,1,1.095959685
18,40,1,1,47,'FacePics\set47 (1).jpg',-1,3,2,2,Absent,1,1.065428086,3,0.759983078
18,41,6,1,12,'FacePics\set12 (1).jpg',-1,7,7,4,FoilPick,0,4.032474619,3,1.775962354
18,42,1,1,51,'FacePics\set51 (1).jpg',-1,3,2,2,Absent,1,1.219065639,3,0.704027871
18,43,6,2,4,'FacePics\set4 (1).jpg',7,-1,1,7,Absent,0,5.963214093,2,1.015977993
18,44,1,1,3,'FacePics\set3 (1).jpg',-1,3,2,2,Absent,1,2.326759689,2,2.439964258
18,45,3,1,19,'FacePics\set19 (1).jpg',-1,4,4,3,FoilPick,0,4.8255494,2,1.359979999
18,46,3,2,56,'FacePics\set56 (1).jpg',4,-1,1,1,TargetPick,1,2.206484217,3,0.936003035
18,47,6,1,31,'FacePics\set31 (1).jpg',-1,7,7,7,Absent,1,6.105329608,3,0.91196757
18,48,3,2,43,'FacePics\set43 (1).jpg',3,-1,1,4,Absent,0,3.32208692,2,1.055963226
18,49,3,2,10,'FacePics\set10 (1).jpg',3,-1,1,3,FoilPick,0,2.708962366,3,0.815991527
18,50,3,2,8,'FacePics\set8 (1).jpg',2,-1,1,3,FoilPick,0,1.962166256,1,6.855846222
18,51,1,2,45,'FacePics\set45 (1).jpg',3,-1,1,2,Absent,0,1.595121776,2,0.887983101
18,52,6,1,50,'FacePics\set50 (1).jpg',-1,5,7,7,Absent,1,9.017059835,1,0.711968597
18,53,6,2,24,'FacePics\set24 (1).jpg',7,-1,1,7,Absent,0,10.06695061,2,0.999966965
18,54,1,2,59,'FacePics\set59 (1).jpg',3,-1,1,1,TargetPick,1,1.769296231,1,0.84797285
18,55,1,2,7,'FacePics\set7 (1).jpg',3,-1,1,1,TargetPick,1,1.748207026,2,0.767987309
18,56,1,1,28,'FacePics\set28 (1).jpg',-1,3,2,2,Absent,1,2.371046603,2,1.463960914
18,57,1,2,40,'FacePics\set40 (1).jpg',3,-1,1,2,Absent,0,2.276867632,3,0.839977921
18,58,3,1,35,'FacePics\set35 (1).jpg',-1,4,4,4,Absent,1,2.161520234,3,0.855987666
18,59,3,1,57,'FacePics\set57 (1).jpg',-1,4,4,4,Absent,1,1.9615559,2,1.024030975
18,60,1,2,9,'FacePics\set9 (1).jpg',3,-1,1,1,TargetPick,1,2.709618267,2,1.439971955
19,1,1,1,6,'FacePics\set6 (1).jpg',-1,3,2,2,Absent,1,4.349376791,3,5.239916711
19,2,3,1,44,'FacePics\set44 (1).jpg',-1,2,4,1,InnocentPick,0,6.061289428,2,1.463991325
19,3,6,2,54,'FacePics\set54 (1).jpg',4,-1,1,7,Absent,0,9.247079746,2,1.127990219
19,4,1,1,9,'FacePics\set9 (1).jpg',-1,3,2,2,Absent,1,1.968935831,2,1.143954196
19,5,1,2,29,'FacePics\set29 (1).jpg',3,-1,1,1,TargetPick,1,1.248426836,3,1.367965946
19,6,3,2,18,'FacePics\set18 (1).jpg',2,-1,1,1,TargetPick,1,2.538614056,3,1.039965591
19,7,3,1,51,'FacePics\set51 (1).jpg',-1,4,4,4,Absent,1,2.50898321,2,1.543960355
19,8,3,1,13,'FacePics\set13 (1).jpg',-1,3,4,4,Absent,1,1.852169437,2,3.399975368
19,9,6,1,8,'FacePics\set8 (1).jpg',-1,4,7,3,FoilPick,0,7.697432748,2,2.759960768
19,10,3,2,37,'FacePics\set37 (1).jpg',4,-1,1,4,Absent,0,1.455847249,1,3.103901044
19,11,1,1,38,'FacePics\set38 (1).jpg',-1,3,2,2,Absent,1,1.436614012,1,1.1999771
19,12,3,1,2,'FacePics\set2 (1).jpg',-1,2,4,4,Absent,1,3.534922388,2,1.007994658
19,13,1,1,53,'FacePics\set53 (1).jpg',-1,3,2,2,Absent,1,0.860433192,2,1.416000285
19,14,1,1,43,'FacePics\set43 (1).jpg',-1,3,2,2,Absent,1,0.82933081,2,1.623984872
19,15,3,1,3,'FacePics\set3 (1).jpg',-1,4,4,4,Absent,1,1.669612134,2,0.719989403
19,16,3,2,40,'FacePics\set40 (1).jpg',3,-1,1,4,Absent,0,1.337154516,2,2.071996824
19,17,6,1,4,'FacePics\set4 (1).jpg',-1,5,7,7,Absent,1,4.224946418,2,0.759999897
19,18,1,2,16,'FacePics\set16 (1).jpg',3,-1,1,2,Absent,0,1.188440923,2,1.543974788
19,19,3,1,46,'FacePics\set46 (1).jpg',-1,2,4,2,FoilPick,0,4.064657473,2,0.863996521
19,20,6,1,24,'FacePics\set24 (1).jpg',-1,7,7,7,Absent,1,2.827483694,2,0.743975942
19,21,6,2,32,'FacePics\set32 (1).jpg',2,-1,1,1,TargetPick,1,4.834357701,2,1.167980507
19,22,3,1,15,'FacePics\set15 (1).jpg',-1,3,4,4,Absent,1,1.307630475,2,0.727981174
19,23,6,2,28,'FacePics\set28 (1).jpg',2,-1,1,7,Absent,0,3.091392397,2,0.575970418
19,24,6,1,35,'FacePics\set35 (1).jpg',-1,7,7,7,Absent,1,2.545866852,2,0.567990193
19,25,3,2,11,'FacePics\set11 (1).jpg',2,-1,1,4,Absent,0,1.359945994,2,0.791959926
19,26,3,1,10,'FacePics\set10 (1).jpg',-1,4,4,4,Absent,1,1.292731661,2,0.823999497
19,27,1,2,14,'FacePics\set14 (1).jpg',3,-1,1,2,Absent,0,0.715739379,2,0.823984743
19,28,6,2,5,'FacePics\set5 (1).jpg',2,-1,1,7,Absent,0,2.224396035,2,0.735973587
19,29,3,2,36,'FacePics\set36 (1).jpg',3,-1,1,4,Absent,0,0.740996994,2,0.735978719
19,30,1,1,17,'FacePics\set17 (1).jpg',-1,3,2,2,Absent,1,1.094824589,2,0.671980723
19,31,6,2,34,'FacePics\set34 (1).jpg',7,-1,1,7,Absent,0,5.105356908,2,0.912010654
19,32,1,2,49,'FacePics\set49 (1).jpg',3,-1,1,2,Absent,0,0.786412206,2,0.847994376
19,33,1,2,25,'FacePics\set25 (1).jpg',3,-1,1,1,TargetPick,1,0.916818205,3,0.935984684
19,34,1,1,59,'FacePics\set59 (1).jpg',-1,3,2,2,Absent,1,0.76589314,2,0.647992259
19,35,1,2,48,'FacePics\set48 (1).jpg',3,-1,1,2,Absent,0,1.217964322,2,0.791990716
19,36,1,1,21,'FacePics\set21 (1).jpg',-1,3,2,2,Absent,1,0.525497249,2,0.696043276
19,37,6,1,50,'FacePics\set50 (1).jpg',-1,3,7,7,Absent,1,5.181405265,2,0.903968848
19,38,6,1,33,'FacePics\set33 (1).jpg',-1,5,7,7,Absent,1,1.625350929,2,0.543998843
19,39,3,2,27,'FacePics\set27 (1).jpg',4,-1,1,4,Absent,0,2.061632936,2,0.647975901
19,40,6,2,30,'FacePics\set30 (1).jpg',5,-1,1,7,Absent,0,1.603127795,2,0.647978467
19,41,3,2,20,'FacePics\set20 (1).jpg',4,-1,1,4,Absent,0,0.755913449,2,1.863975994
19,42,6,2,23,'FacePics\set23 (1).jpg',2,-1,1,7,Absent,0,1.620874742,2,0.639989583
19,43,6,1,60,'FacePics\set60 (1).jpg',-1,5,7,7,Absent,1,4.442443383,2,0.808000559
19,44,3,2,39,'FacePics\set39 (1).jpg',3,-1,1,4,Absent,0,1.585602476,2,0.624011813
19,45,6,1,19,'FacePics\set19 (1).jpg',-1,7,7,7,Absent,1,5.033163473,2,0.632002302
19,46,6,1,12,'FacePics\set12 (1).jpg',-1,5,7,7,Absent,1,1.374601049,2,0.696002222
19,47,3,1,55,'FacePics\set55 (1).jpg',-1,4,4,4,Absent,1,2.037558515,2,0.815998745
19,48,3,2,42,'FacePics\set42 (1).jpg',2,-1,1,4,Absent,0,0.558241477,2,1.215957435
19,49,3,1,7,'FacePics\set7 (1).jpg',-1,3,4,4,Absent,1,1.081976238,2,0.767991027
19,50,1,2,47,'FacePics\set47 (1).jpg',3,-1,1,2,Absent,0,0.515689472,2,1.759985144
19,51,6,2,31,'FacePics\set31 (1).jpg',2,-1,1,7,Absent,0,1.843341828,2,3.279946129
19,52,3,2,58,'FacePics\set58 (1).jpg',2,-1,1,4,Absent,0,0.81673135,2,0.679990455
19,53,1,2,1,'FacePics\set1 (1).jpg',3,-1,1,2,Absent,0,1.240705445,2,0.680007775
19,54,6,2,45,'FacePics\set45 (1).jpg',7,-1,1,7,Absent,0,1.501097923,2,2.783971041
19,55,6,2,22,'FacePics\set22 (1).jpg',6,-1,1,7,Absent,0,1.810742253,2,0.767979481
19,56,1,2,41,'FacePics\set41 (1).jpg',3,-1,1,2,Absent,0,0.504127913,2,0.871982839
19,57,1,2,26,'FacePics\set26 (1).jpg',3,-1,1,1,TargetPick,1,3.028634365,1,0.751988882
19,58,1,1,52,'FacePics\set52 (1).jpg',-1,3,2,2,Absent,1,0.633160202,2,0.631989793
19,59,1,1,57,'FacePics\set57 (1).jpg',-1,3,2,2,Absent,1,0.490373163,2,0.551983558
19,60,6,1,56,'FacePics\set56 (1).jpg',-1,4,7,7,Absent,1,3.01921115,2,0.608001008
20,1,3,2,55,'FacePics\set55 (1).jpg',2,-1,1,1,TargetPick,1,5.506521285,3,2.559950363
20,2,3,1,45,'FacePics\set45 (1).jpg',-1,3,4,1,InnocentPick,0,3.712315239,3,1.287966692
20,3,1,2,17,'FacePics\set17 (1).jpg',3,-1,1,1,TargetPick,1,4.4438702,3,1.567936903
20,4,1,2,23,'FacePics\set23 (1).jpg',3,-1,1,2,Absent,0,1.510230226,2,1.303996221
20,5,6,1,54,'FacePics\set54 (1).jpg',-1,4,7,5,FoilPick,0,6.279456406,1,1.351945927
20,6,3,2,35,'FacePics\set35 (1).jpg',3,-1,1,1,TargetPick,1,1.968178935,3,0.719980076
20,7,6,1,51,'FacePics\set51 (1).jpg',-1,7,7,4,FoilPick,0,2.288249586,3,1.271988161
20,8,6,1,53,'FacePics\set53 (1).jpg',-1,4,7,1,InnocentPick,0,11.04403903,1,1.239959575
20,9,1,1,6,'FacePics\set6 (1).jpg',-1,3,2,2,Absent,1,1.065945007,3,1.367973852
20,10,3,1,57,'FacePics\set57 (1).jpg',-1,3,4,2,FoilPick,0,3.299504702,2,0.98397368
20,11,3,1,52,'FacePics\set52 (1).jpg',-1,2,4,4,Absent,1,1.929802107,3,0.928008888
20,12,3,1,20,'FacePics\set20 (1).jpg',-1,4,4,4,Absent,1,2.185899296,3,0.61596551
20,13,6,2,40,'FacePics\set40 (1).jpg',7,-1,1,1,TargetPick,1,6.723184835,3,0.847962921
20,14,1,2,46,'FacePics\set46 (1).jpg',3,-1,1,2,Absent,0,1.487401187,3,1.167990273
20,15,3,1,27,'FacePics\set27 (1).jpg',-1,2,4,4,Absent,1,3.266045011,2,1.327965782
20,16,3,1,37,'FacePics\set37 (1).jpg',-1,2,4,4,Absent,1,4.829544912,2,0.639983502
20,17,3,2,29,'FacePics\set29 (1).jpg',2,-1,1,1,TargetPick,1,3.277534261,3,1.023932677
20,18,1,1,38,'FacePics\set38 (1).jpg',-1,3,2,2,Absent,1,1.426422397,2,1.17600183
20,19,6,1,24,'FacePics\set24 (1).jpg',-1,3,7,7,Absent,1,6.428020603,2,0.71998168
20,20,6,2,15,'FacePics\set15 (1).jpg',2,-1,1,1,TargetPick,1,5.115267445,2,0.863973205
20,21,1,2,32,'FacePics\set32 (1).jpg',3,-1,1,1,TargetPick,1,1.751597172,2,0.727960522
20,22,1,2,41,'FacePics\set41 (1).jpg',3,-1,1,1,TargetPick,1,1.361306168,2,1.071954228
20,23,6,2,22,'FacePics\set22 (1).jpg',6,-1,1,7,Absent,0,4.739419631,2,1.471960193
20,24,1,1,33,'FacePics\set33 (1).jpg',-1,3,2,2,Absent,1,1.110541785,2,0.815978275
20,25,3,2,44,'FacePics\set44 (1).jpg',4,-1,1,1,TargetPick,1,4.485072354,2,0.999954777
20,26,1,2,50,'FacePics\set50 (1).jpg',3,-1,1,1,TargetPick,1,1.332944187,2,0.655953053
20,27,3,1,18,'FacePics\set18 (1).jpg',-1,3,4,4,Absent,1,2.968753045,3,0.67198258
20,28,1,1,39,'FacePics\set39 (1).jpg',-1,3,2,2,Absent,1,1.155166466,3,0.679972327
20,29,6,2,21,'FacePics\set21 (1).jpg',4,-1,1,1,TargetPick,1,3.355518886,3,1.007955749
20,30,1,2,48,'FacePics\set48 (1).jpg',3,-1,1,2,Absent,0,1.081105031,2,1.039941999
20,31,3,2,26,'FacePics\set26 (1).jpg',2,-1,1,1,TargetPick,1,2.752151396,2,0.687999279
20,32,1,1,42,'FacePics\set42 (1).jpg',-1,3,2,2,Absent,1,1.170777439,2,0.655973258
20,33,6,2,2,'FacePics\set2 (1).jpg',7,-1,1,5,FoilPick,0,5.966384442,2,0.775950961
20,34,3,2,3,'FacePics\set3 (1).jpg',4,-1,1,1,TargetPick,1,1.899371085,2,0.783944557
20,35,1,1,59,'FacePics\set59 (1).jpg',-1,3,2,2,Absent,1,1.548261947,1,1.023948714
20,36,6,2,56,'FacePics\set56 (1).jpg',7,-1,1,7,Absent,0,3.071700216,3,0.58399241
20,37,6,2,12,'FacePics\set12 (1).jpg',7,-1,1,7,Absent,0,3.431684962,3,1.127978355
20,38,6,2,28,'FacePics\set28 (1).jpg',2,-1,1,5,FoilPick,0,6.653553346,2,0.855959403
20,39,3,2,19,'FacePics\set19 (1).jpg',2,-1,1,3,FoilPick,0,3.547627219,2,0.823960645
20,40,6,1,13,'FacePics\set13 (1).jpg',-1,4,7,7,Absent,1,4.158093784,3,0.671949866
20,41,1,2,60,'FacePics\set60 (1).jpg',3,-1,1,2,Absent,0,1.22480469,3,0.719962757
20,42,3,1,14,'FacePics\set14 (1).jpg',-1,2,4,4,Absent,1,2.110544992,3,0.583980543
20,43,6,1,49,'FacePics\set49 (1).jpg',-1,4,7,4,FoilPick,0,2.752688621,2,0.727967899
20,44,6,1,25,'FacePics\set25 (1).jpg',-1,2,7,7,Absent,1,2.887089307,3,0.567976032
20,45,6,2,31,'FacePics\set31 (1).jpg',3,-1,1,5,FoilPick,0,3.583655971,2,1.007962164
20,46,1,1,43,'FacePics\set43 (1).jpg',-1,3,2,1,InnocentPick,0,1.31592424,2,0.81595005
20,47,6,1,30,'FacePics\set30 (1).jpg',-1,2,7,7,Absent,1,3.887702867,3,0.695979083
20,48,1,1,1,'FacePics\set1 (1).jpg',-1,3,2,2,Absent,1,1.083831572,3,2.49594547
20,49,6,2,9,'FacePics\set9 (1).jpg',4,-1,1,6,FoilPick,0,2.574524419,1,0.727960843
20,50,6,1,11,'FacePics\set11 (1).jpg',-1,4,7,7,Absent,1,3.492261875,3,0.871978347
20,51,1,2,47,'FacePics\set47 (1).jpg',3,-1,1,1,TargetPick,1,1.537932142,2,0.623977387
20,52,1,1,4,'FacePics\set4 (1).jpg',-1,3,2,2,Absent,1,1.007638233,1,0.743996464
20,53,3,1,5,'FacePics\set5 (1).jpg',-1,2,4,4,Absent,1,1.900726497,3,0.879977395
20,54,3,2,8,'FacePics\set8 (1).jpg',2,-1,1,3,FoilPick,0,1.641547076,1,0.631982529
20,55,3,2,16,'FacePics\set16 (1).jpg',4,-1,1,1,TargetPick,1,3.705688281,3,0.575975401
20,56,1,2,10,'FacePics\set10 (1).jpg',3,-1,1,2,Absent,0,1.618746903,3,0.591975422
20,57,3,2,7,'FacePics\set7 (1).jpg',3,-1,1,4,Absent,0,2.158397838,3,0.623999197
20,58,1,1,58,'FacePics\set58 (1).jpg',-1,3,2,1,InnocentPick,0,1.178558069,2,0.71199514
20,59,3,1,34,'FacePics\set34 (1).jpg',-1,2,4,2,FoilPick,0,1.977523132,3,0.640003708
20,60,6,1,36,'FacePics\set36 (1).jpg',-1,2,7,7,Absent,1,2.786423179,3,0.615976735
21,1,3,2,17,'FacePics\set17 (1).jpg',3,-1,1,1,TargetPick,1,2.198198986,3,1.639983809
21,2,3,1,58,'FacePics\set58 (1).jpg',-1,4,4,3,FoilPick,0,9.454372507,2,2.359973212
21,3,1,1,11,'FacePics\set11 (1).jpg',-1,3,2,2,Absent,1,1.558603588,2,2.951949624
21,4,1,2,10,'FacePics\set10 (1).jpg',3,-1,1,1,TargetPick,1,2.213342201,3,1.527975208
21,5,6,2,3,'FacePics\set3 (1).jpg',3,-1,1,1,TargetPick,1,2.16936132,3,1.823982498
21,6,6,1,57,'FacePics\set57 (1).jpg',-1,5,7,7,Absent,1,8.641465333,2,0.871984764
21,7,3,2,15,'FacePics\set15 (1).jpg',4,-1,1,1,TargetPick,1,1.814246291,3,0.687987358
21,8,3,1,39,'FacePics\set39 (1).jpg',-1,4,4,4,Absent,1,3.244616497,2,1.967981277
21,9,6,1,55,'FacePics\set55 (1).jpg',-1,7,7,7,Absent,1,6.0205839,2,1.167982431
21,10,6,2,47,'FacePics\set47 (1).jpg',2,-1,1,1,TargetPick,1,3.779842577,3,4.239937559
21,11,3,2,16,'FacePics\set16 (1).jpg',3,-1,1,1,TargetPick,1,4.467600288,2,1.239986952
21,12,3,2,37,'FacePics\set37 (1).jpg',4,-1,1,4,Absent,0,4.521518203,2,1.575964645
21,13,3,1,49,'FacePics\set49 (1).jpg',-1,3,4,4,Absent,1,4.871287209,1,2.511948687
21,14,1,2,25,'FacePics\set25 (1).jpg',3,-1,1,1,TargetPick,1,6.35391007,1,0.679972173
21,15,3,1,12,'FacePics\set12 (1).jpg',-1,2,4,4,Absent,1,2.818270562,2,0.799985054
21,16,6,1,60,'FacePics\set60 (1).jpg',-1,5,7,3,FoilPick,0,12.21064995,1,0.89599183
21,17,3,1,2,'FacePics\set2 (1).jpg',-1,2,4,4,Absent,1,3.725469859,2,0.855989354
21,18,3,2,52,'FacePics\set52 (1).jpg',4,-1,1,4,Absent,0,5.416551996,2,1.263965473
21,19,6,1,51,'FacePics\set51 (1).jpg',-1,2,7,7,Absent,1,4.444082985,2,0.815994255
21,20,6,2,19,'FacePics\set19 (1).jpg',3,-1,1,1,TargetPick,1,4.026773457,3,1.407966818
21,21,3,2,26,'FacePics\set26 (1).jpg',4,-1,1,2,FoilPick,0,3.987399944,2,0.808001842
21,22,1,2,32,'FacePics\set32 (1).jpg',3,-1,1,1,TargetPick,1,1.422719422,3,2.135962746
21,23,3,1,34,'FacePics\set34 (1).jpg',-1,2,4,4,Absent,1,2.762619391,2,1.136001876
21,24,1,1,28,'FacePics\set28 (1).jpg',-1,3,2,2,Absent,1,3.493620292,2,1.407978044
21,25,1,2,27,'FacePics\set27 (1).jpg',3,-1,1,1,TargetPick,1,1.292509071,3,1.207966625
21,26,1,2,44,'FacePics\set44 (1).jpg',3,-1,1,2,Absent,0,1.236015649,2,0.871978991
21,27,1,2,5,'FacePics\set5 (1).jpg',3,-1,1,2,Absent,0,1.891712941,2,2.943974531
21,28,3,2,54,'FacePics\set54 (1).jpg',2,-1,1,1,TargetPick,1,1.836718316,3,1.199966194
21,29,1,2,9,'FacePics\set9 (1).jpg',3,-1,1,1,TargetPick,1,1.166752455,3,1.103970002
21,30,6,2,38,'FacePics\set38 (1).jpg',5,-1,1,1,TargetPick,1,1.725641132,3,1.999984605
21,31,6,1,40,'FacePics\set40 (1).jpg',-1,2,7,7,Absent,1,6.937425795,2,0.975982029
21,32,6,2,29,'FacePics\set29 (1).jpg',3,-1,1,1,TargetPick,1,4.813302686,1,1.087984215
21,33,3,2,30,'FacePics\set30 (1).jpg',4,-1,1,4,Absent,0,3.530979264,2,0.85600058
21,34,3,2,20,'FacePics\set20 (1).jpg',3,-1,1,4,Absent,0,2.39810841,3,3.823943368
21,35,6,2,22,'FacePics\set22 (1).jpg',4,-1,1,1,TargetPick,1,6.629730255,2,0.911984353
21,36,1,1,33,'FacePics\set33 (1).jpg',-1,3,2,2,Absent,1,2.306260293,3,1.839950004
21,37,6,2,35,'FacePics\set35 (1).jpg',7,-1,1,7,Absent,0,6.006077987,2,2.055965171
21,38,1,2,46,'FacePics\set46 (1).jpg',3,-1,1,2,Absent,0,1.901764156,2,1.327983996
21,39,1,1,4,'FacePics\set4 (1).jpg',-1,3,2,2,Absent,1,1.608449442,3,1.34396786
21,40,6,1,1,'FacePics\set1 (1).jpg',-1,6,7,7,Absent,1,8.329583872,2,0.767984292
21,41,6,1,36,'FacePics\set36 (1).jpg',-1,7,7,7,Absent,1,5.91726435,2,1.079978331
21,42,3,2,48,'FacePics\set48 (1).jpg',2,-1,1,4,Absent,0,5.735399194,2,0.759977767
21,43,6,2,42,'FacePics\set42 (1).jpg',6,-1,1,7,Absent,0,6.33152753,2,0.91196543
21,44,3,1,21,'FacePics\set21 (1).jpg',-1,3,4,4,Absent,1,4.538919076,2,0.943989606
21,45,1,1,24,'FacePics\set24 (1).jpg',-1,3,2,2,Absent,1,1.298262107,3,1.73596204
21,46,1,1,18,'FacePics\set18 (1).jpg',-1,3,2,2,Absent,1,1.836268966,3,0.767989744
21,47,6,1,6,'FacePics\set6 (1).jpg',-1,7,7,7,Absent,1,8.653718078,2,0.831968175
21,48,1,1,43,'FacePics\set43 (1).jpg',-1,3,2,2,Absent,1,1.651777627,2,1.031971896
21,49,6,1,7,'FacePics\set7 (1).jpg',-1,2,7,7,Absent,1,4.492497396,2,2.311965173
21,50,6,2,31,'FacePics\set31 (1).jpg',3,-1,1,7,Absent,0,3.780871497,2,0.67997955
21,51,6,2,8,'FacePics\set8 (1).jpg',3,-1,1,1,TargetPick,1,3.66845492,3,1.159992264
21,52,3,1,59,'FacePics\set59 (1).jpg',-1,2,4,4,Absent,1,3.133245839,2,0.711993141
21,53,1,1,56,'FacePics\set56 (1).jpg',-1,3,2,2,Absent,1,1.262929863,2,0.647992579
21,54,1,1,14,'FacePics\set14 (1).jpg',-1,3,2,2,Absent,1,2.094612263,2,0.807976504
21,55,1,2,23,'FacePics\set23 (1).jpg',3,-1,1,2,Absent,0,1.27012204,2,0.975986198
21,56,3,1,50,'FacePics\set50 (1).jpg',-1,4,4,4,Absent,1,4.42297152,2,0.568012645
21,57,1,1,13,'FacePics\set13 (1).jpg',-1,3,2,2,Absent,1,1.226465102,3,0.679995907
21,58,3,1,45,'FacePics\set45 (1).jpg',-1,2,4,2,FoilPick,0,3.809657204,1,1.015983863
21,59,1,2,41,'FacePics\set41 (1).jpg',3,-1,1,2,Absent,0,1.051683394,2,2.463981703
21,60,6,1,53,'FacePics\set53 (1).jpg',-1,3,7,7,Absent,1,9.495630984,1,1.079975765
22,1,3,1,7,'FacePics\set7 (1).jpg',-1,4,4,3,FoilPick,0,6.479627555,2,3.391943825
22,2,1,1,42,'FacePics\set42 (1).jpg',-1,3,2,2,Absent,1,2.493396739,2,2.703960637
22,3,6,2,2,'FacePics\set2 (1).jpg',2,-1,1,1,TargetPick,1,9.521204844,2,2.335945619
22,4,1,1,53,'FacePics\set53 (1).jpg',-1,3,2,1,InnocentPick,0,2.015881272,2,0.871999838
22,5,6,2,51,'FacePics\set51 (1).jpg',4,-1,1,1,TargetPick,1,3.318868412,3,2.703951015
22,6,6,1,34,'FacePics\set34 (1).jpg',-1,5,7,7,Absent,1,6.574636202,2,1.191929841
22,7,1,1,22,'FacePics\set22 (1).jpg',-1,3,2,2,Absent,1,1.697039205,2,1.551980671
22,8,3,1,20,'FacePics\set20 (1).jpg',-1,4,4,1,InnocentPick,0,4.473803957,1,0.935986288
22,9,6,2,59,'FacePics\set59 (1).jpg',7,-1,1,2,FoilPick,0,3.609597034,1,1.503966538
22,10,6,1,58,'FacePics\set58 (1).jpg',-1,6,7,5,FoilPick,0,4.654481428,2,2.535950622
22,11,3,1,19,'FacePics\set19 (1).jpg',-1,3,4,4,Absent,1,2.54391293,2,1.367983586
22,12,6,1,48,'FacePics\set48 (1).jpg',-1,3,7,7,Absent,1,4.980285705,1,2.2319599
22,13,6,2,27,'FacePics\set27 (1).jpg',4,-1,1,4,FoilPick,0,4.676375488,2,2.247969422
22,14,3,2,32,'FacePics\set32 (1).jpg',2,-1,1,1,TargetPick,1,2.705055994,1,2.2399552
22,15,1,2,40,'FacePics\set40 (1).jpg',3,-1,1,1,TargetPick,1,3.206435478,2,1.887998135
22,16,1,2,45,'FacePics\set45 (1).jpg',3,-1,1,2,Absent,0,1.118091719,2,1.143964139
22,17,3,1,12,'FacePics\set12 (1).jpg',-1,4,4,2,FoilPick,0,3.582173491,2,1.008011336
22,18,1,2,43,'FacePics\set43 (1).jpg',3,-1,1,2,Absent,0,1.44975712,2,1.439975278
22,19,6,2,25,'FacePics\set25 (1).jpg',4,-1,1,1,TargetPick,1,9.77433779,1,1.175982862
22,20,6,1,4,'FacePics\set4 (1).jpg',-1,3,7,5,FoilPick,0,2.183562212,2,1.719969197
22,21,6,2,57,'FacePics\set57 (1).jpg',5,-1,1,5,FoilPick,0,2.741320616,2,0.919989275
22,22,6,2,33,'FacePics\set33 (1).jpg',3,-1,1,7,Absent,0,5.381126738,1,1.031983763
22,23,3,2,8,'FacePics\set8 (1).jpg',2,-1,1,1,TargetPick,1,3.838805343,1,1.071994258
22,24,1,1,44,'FacePics\set44 (1).jpg',-1,3,2,2,Absent,1,1.709476373,2,1.023970823
22,25,3,1,47,'FacePics\set47 (1).jpg',-1,2,4,4,Absent,1,2.957480756,1,2.095970533
22,26,6,1,35,'FacePics\set35 (1).jpg',-1,7,7,7,Absent,1,3.916382967,2,0.84797032
22,27,1,2,38,'FacePics\set38 (1).jpg',3,-1,1,1,TargetPick,1,2.360995121,1,1.512053889
22,28,3,2,9,'FacePics\set9 (1).jpg',2,-1,1,1,TargetPick,1,3.392809856,1,1.767961199
22,29,3,1,56,'FacePics\set56 (1).jpg',-1,2,4,4,Absent,1,3.821051019,2,1.519979909
22,30,1,1,37,'FacePics\set37 (1).jpg',-1,3,2,2,Absent,1,1.594160988,2,1.087980366
22,31,6,2,16,'FacePics\set16 (1).jpg',2,-1,1,7,Absent,0,3.545522061,2,0.879993855
22,32,6,2,50,'FacePics\set50 (1).jpg',5,-1,1,7,Absent,0,7.914617638,2,0.775968045
22,33,3,2,36,'FacePics\set36 (1).jpg',2,-1,1,1,TargetPick,1,3.224283457,2,0.751982788
22,34,3,1,13,'FacePics\set13 (1).jpg',-1,4,4,1,InnocentPick,0,4.779331965,2,1.3119857
22,35,1,1,21,'FacePics\set21 (1).jpg',-1,3,2,2,Absent,1,0.954300341,2,0.943992171
22,36,1,2,3,'FacePics\set3 (1).jpg',3,-1,1,2,Absent,0,1.625361514,2,0.719976894
22,37,1,1,18,'FacePics\set18 (1).jpg',-1,3,2,2,Absent,1,0.959660476,2,0.863984333
22,38,3,2,49,'FacePics\set49 (1).jpg',3,-1,1,1,TargetPick,1,1.986702022,2,0.855992882
22,39,1,2,29,'FacePics\set29 (1).jpg',3,-1,1,2,Absent,0,0.980807221,2,0.911990768
22,40,6,1,39,'FacePics\set39 (1).jpg',-1,6,7,7,Absent,1,5.458654649,2,0.719991969
22,41,6,1,14,'FacePics\set14 (1).jpg',-1,2,7,2,FoilPick,0,8.740337241,1,1.039990288
22,42,3,2,54,'FacePics\set54 (1).jpg',3,-1,1,4,Absent,0,2.126215312,1,0.839981436
22,43,6,1,60,'FacePics\set60 (1).jpg',-1,5,7,7,Absent,1,4.481058357,2,1.519981834
22,44,3,1,46,'FacePics\set46 (1).jpg',-1,2,4,1,InnocentPick,0,5.225995865,2,0.99197808
22,45,1,1,52,'FacePics\set52 (1).jpg',-1,3,2,2,Absent,1,2.883759657,1,0.927980084
22,46,1,1,23,'FacePics\set23 (1).jpg',-1,3,2,2,Absent,1,2.826102606,2,1.375974716
22,47,3,2,15,'FacePics\set15 (1).jpg',2,-1,1,4,Absent,0,3.484616278,1,1.543980882
22,48,3,2,1,'FacePics\set1 (1).jpg',3,-1,1,1,TargetPick,1,2.733876341,2,1.295983555
22,49,6,2,41,'FacePics\set41 (1).jpg',6,-1,1,7,Absent,0,5.846405496,1,6.167901285
22,50,6,1,24,'FacePics\set24 (1).jpg',-1,7,7,3,FoilPick,0,3.500973157,3,1.143989477
22,51,3,1,5,'FacePics\set5 (1).jpg',-1,2,4,4,Absent,1,2.460358717,1,1.847970962
22,52,1,2,30,'FacePics\set30 (1).jpg',3,-1,1,1,TargetPick,1,1.84329917,2,1.911968958
22,53,3,2,31,'FacePics\set31 (1).jpg',2,-1,1,4,Absent,0,2.511830701,1,1.0560043
22,54,3,2,28,'FacePics\set28 (1).jpg',2,-1,1,2,FoilPick,0,3.459698643,2,1.031976707
22,55,6,1,55,'FacePics\set55 (1).jpg',-1,5,7,7,Absent,1,7.072727184,2,1.207976247
22,56,1,2,10,'FacePics\set10 (1).jpg',3,-1,1,2,Absent,0,1.031711824,2,0.775991137
22,57,1,2,17,'FacePics\set17 (1).jpg',3,-1,1,2,Absent,0,3.731403469,2,1.007988564
22,58,3,1,11,'FacePics\set11 (1).jpg',-1,3,4,4,Absent,1,5.167599197,2,0.656004878
22,59,1,2,26,'FacePics\set26 (1).jpg',3,-1,1,1,TargetPick,1,3.577428527,1,1.65594939
22,60,1,1,6,'FacePics\set6 (1).jpg',-1,3,2,1,InnocentPick,0,1.202835541,2,0.679980833
23,1,6,2,3,'FacePics\set3 (1).jpg',5,-1,1,5,FoilPick,0,7.468187125,1,18.46346658
23,2,1,1,12,'FacePics\set12 (1).jpg',-1,3,2,2,Absent,1,8.195696378,2,6.551840022
23,3,1,2,47,'FacePics\set47 (1).jpg',3,-1,1,1,TargetPick,1,1.49480144,3,1.239977215
23,4,3,2,17,'FacePics\set17 (1).jpg',3,-1,1,1,TargetPick,1,5.556138488,3,0.879978998
23,5,1,2,30,'FacePics\set30 (1).jpg',3,-1,1,1,TargetPick,1,3.493849188,2,0.783955783
23,6,3,1,18,'FacePics\set18 (1).jpg',-1,4,4,2,FoilPick,0,4.229658976,2,1.071971547
23,7,3,1,55,'FacePics\set55 (1).jpg',-1,4,4,1,InnocentPick,0,10.84659213,1,3.871864167
23,8,6,2,56,'FacePics\set56 (1).jpg',4,-1,1,1,TargetPick,1,9.615773411,1,1.207976212
23,9,6,1,26,'FacePics\set26 (1).jpg',-1,7,7,3,FoilPick,0,4.149504922,3,0.759980449
23,10,3,1,27,'FacePics\set27 (1).jpg',-1,2,4,3,FoilPick,0,7.644070284,2,0.69598197
